function [t,h,s]=MethaneInterpHIsotermic
data=[
136.11	0.10000	0.090121	11.096	494.68	563.85	5.0108	1.5762	2.1345	302.98	19.028	5.4030e-06	0.014381	
137.00	0.10000	0.089502	11.173	496.10	565.75	5.0247	1.5756	2.1330	304.04	18.777	5.4372e-06	0.014486	
137.89	0.10000	0.088891	11.250	497.52	567.65	5.0386	1.5751	2.1317	305.10	18.532	5.4714e-06	0.014591	
138.78	0.10000	0.088289	11.326	498.94	569.55	5.0523	1.5746	2.1304	306.15	18.292	5.5056e-06	0.014696	
139.67	0.10000	0.087695	11.403	500.36	571.44	5.0659	1.5741	2.1291	307.20	18.059	5.5399e-06	0.014801	
140.56	0.10000	0.087110	11.480	501.78	573.34	5.0794	1.5736	2.1279	308.24	17.830	5.5741e-06	0.014906	
141.45	0.10000	0.086533	11.556	503.20	575.23	5.0929	1.5732	2.1267	309.28	17.607	5.6082e-06	0.015011	
142.34	0.10000	0.085964	11.633	504.61	577.13	5.1062	1.5727	2.1256	310.32	17.389	5.6424e-06	0.015116	
143.23	0.10000	0.085402	11.709	506.03	579.02	5.1195	1.5723	2.1245	311.35	17.176	5.6766e-06	0.015222	
144.12	0.10000	0.084849	11.786	507.45	580.91	5.1326	1.5720	2.1235	312.37	16.968	5.7107e-06	0.015327	
145.02	0.10000	0.084302	11.862	508.86	582.80	5.1457	1.5716	2.1225	313.39	16.764	5.7449e-06	0.015432	
145.91	0.10000	0.083763	11.938	510.27	584.69	5.1587	1.5713	2.1216	314.41	16.565	5.7790e-06	0.015538	
146.80	0.10000	0.083232	12.015	511.69	586.58	5.1716	1.5709	2.1206	315.43	16.370	5.8131e-06	0.015643	
147.69	0.10000	0.082707	12.091	513.10	588.47	5.1844	1.5706	2.1197	316.44	16.179	5.8472e-06	0.015749	
148.58	0.10000	0.082189	12.167	514.51	590.35	5.1972	1.5703	2.1189	317.44	15.992	5.8813e-06	0.015854	
149.47	0.10000	0.081677	12.243	515.92	592.24	5.2098	1.5701	2.1181	318.44	15.809	5.9154e-06	0.015959	
150.36	0.10000	0.081173	12.319	517.34	594.13	5.2224	1.5698	2.1173	319.44	15.629	5.9494e-06	0.016065	
151.25	0.10000	0.080674	12.396	518.75	596.01	5.2349	1.5696	2.1165	320.43	15.454	5.9835e-06	0.016170	
152.14	0.10000	0.080182	12.472	520.16	597.90	5.2473	1.5693	2.1158	321.42	15.282	6.0175e-06	0.016276	
153.03	0.10000	0.079697	12.548	521.57	599.78	5.2597	1.5691	2.1151	322.41	15.113	6.0515e-06	0.016381	
153.92	0.10000	0.079217	12.624	522.98	601.66	5.2719	1.5689	2.1144	323.39	14.947	6.0855e-06	0.016487	
154.81	0.10000	0.078743	12.700	524.39	603.55	5.2841	1.5687	2.1138	324.37	14.785	6.1194e-06	0.016592	
155.70	0.10000	0.078275	12.775	525.79	605.43	5.2963	1.5686	2.1131	325.35	14.626	6.1534e-06	0.016698	
156.59	0.10000	0.077813	12.851	527.20	607.31	5.3083	1.5684	2.1125	326.32	14.470	6.1873e-06	0.016803	
157.48	0.10000	0.077356	12.927	528.61	609.19	5.3203	1.5683	2.1120	327.29	14.317	6.2212e-06	0.016909	
158.37	0.10000	0.076905	13.003	530.02	611.07	5.3322	1.5681	2.1114	328.25	14.167	6.2551e-06	0.017014	
159.26	0.10000	0.076460	13.079	531.43	612.95	5.3440	1.5680	2.1109	329.21	14.019	6.2890e-06	0.017120	
160.15	0.10000	0.076019	13.155	532.83	614.83	5.3558	1.5679	2.1104	330.17	13.874	6.3228e-06	0.017225	
161.04	0.10000	0.075584	13.230	534.24	616.71	5.3675	1.5678	2.1099	331.13	13.732	6.3566e-06	0.017331	
161.93	0.10000	0.075154	13.306	535.65	618.59	5.3791	1.5677	2.1094	332.08	13.593	6.3904e-06	0.017436	
162.83	0.10000	0.074729	13.382	537.05	620.47	5.3907	1.5676	2.1090	333.03	13.455	6.4242e-06	0.017542	
163.72	0.10000	0.074309	13.457	538.46	622.34	5.4022	1.5676	2.1086	333.97	13.321	6.4579e-06	0.017647	
164.61	0.10000	0.073893	13.533	539.87	624.22	5.4136	1.5675	2.1082	334.91	13.188	6.4917e-06	0.017753	
165.50	0.10000	0.073483	13.609	541.27	626.10	5.4250	1.5675	2.1078	335.85	13.058	6.5254e-06	0.017859	
166.39	0.10000	0.073077	13.684	542.68	627.98	5.4363	1.5675	2.1074	336.79	12.930	6.5590e-06	0.017964	
167.28	0.10000	0.072676	13.760	544.08	629.85	5.4476	1.5674	2.1071	337.72	12.804	6.5927e-06	0.018070	
168.17	0.10000	0.072279	13.835	545.49	631.73	5.4588	1.5674	2.1067	338.65	12.681	6.6263e-06	0.018175	
169.06	0.10000	0.071886	13.911	546.89	633.60	5.4699	1.5674	2.1064	339.57	12.559	6.6599e-06	0.018281	
169.95	0.10000	0.071498	13.986	548.30	635.48	5.4809	1.5675	2.1061	340.50	12.439	6.6935e-06	0.018386	
170.84	0.10000	0.071115	14.062	549.70	637.35	5.4920	1.5675	2.1059	341.42	12.322	6.7271e-06	0.018492	
171.73	0.10000	0.070735	14.137	551.11	639.23	5.5029	1.5675	2.1056	342.33	12.206	6.7606e-06	0.018598	
172.62	0.10000	0.070360	14.213	552.51	641.11	5.5138	1.5676	2.1054	343.25	12.092	6.7941e-06	0.018703	
173.51	0.10000	0.069988	14.288	553.92	642.98	5.5246	1.5676	2.1052	344.16	11.980	6.8276e-06	0.018809	
174.40	0.10000	0.069621	14.364	555.32	644.85	5.5354	1.5677	2.1049	345.07	11.869	6.8610e-06	0.018915	
175.29	0.10000	0.069257	14.439	556.73	646.73	5.5461	1.5678	2.1048	345.97	11.760	6.8944e-06	0.019021	
176.18	0.10000	0.068898	14.514	558.13	648.60	5.5568	1.5679	2.1046	346.87	11.653	6.9278e-06	0.019126	
177.07	0.10000	0.068542	14.590	559.54	650.48	5.5674	1.5680	2.1044	347.77	11.548	6.9612e-06	0.019232	
177.96	0.10000	0.068190	14.665	560.94	652.35	5.5780	1.5681	2.1043	348.67	11.444	6.9945e-06	0.019338	
178.85	0.10000	0.067841	14.740	562.34	654.22	5.5885	1.5682	2.1042	349.56	11.342	7.0278e-06	0.019444	
179.75	0.10000	0.067497	14.816	563.75	656.10	5.5989	1.5683	2.1041	350.45	11.241	7.0611e-06	0.019550	
180.64	0.10000	0.067156	14.891	565.15	657.97	5.6093	1.5685	2.1040	351.34	11.142	7.0943e-06	0.019656	
181.53	0.10000	0.066818	14.966	566.56	659.85	5.6197	1.5686	2.1039	352.22	11.044	7.1275e-06	0.019763	
182.42	0.10000	0.066484	15.041	567.96	661.72	5.6299	1.5688	2.1039	353.11	10.947	7.1607e-06	0.019869	
183.31	0.10000	0.066153	15.117	569.37	663.59	5.6402	1.5690	2.1038	353.99	10.852	7.1939e-06	0.019975	
184.20	0.10000	0.065825	15.192	570.77	665.47	5.6504	1.5692	2.1038	354.86	10.758	7.2270e-06	0.020082	
185.09	0.10000	0.065501	15.267	572.18	667.34	5.6605	1.5694	2.1038	355.74	10.666	7.2601e-06	0.020189	
185.98	0.10000	0.065180	15.342	573.58	669.21	5.6706	1.5696	2.1038	356.61	10.575	7.2932e-06	0.020296	
186.87	0.10000	0.064862	15.417	574.99	671.09	5.6807	1.5698	2.1038	357.48	10.485	7.3262e-06	0.020403	
187.76	0.10000	0.064548	15.492	576.39	672.96	5.6907	1.5701	2.1038	358.34	10.396	7.3592e-06	0.020511	
188.65	0.10000	0.064236	15.568	577.80	674.83	5.7006	1.5703	2.1039	359.20	10.309	7.3922e-06	0.020620	
189.54	0.10000	0.063928	15.643	579.20	676.71	5.7105	1.5706	2.1039	360.07	10.223	7.4251e-06	0.020730	
190.43	0.10000	0.063622	15.718	580.61	678.58	5.7204	1.5708	2.1040	360.92	10.137	7.4580e-06	0.020844	
191.32	0.10000	0.063320	15.793	582.01	680.45	5.7302	1.5711	2.1041	361.78	10.053	7.4909e-06	0.020942	
192.21	0.10000	0.063020	15.868	583.42	682.33	5.7400	1.5714	2.1042	362.63	9.9705	7.5238e-06	0.021041	
193.10	0.10000	0.062723	15.943	584.82	684.20	5.7497	1.5717	2.1044	363.48	9.8887	7.5566e-06	0.021142	
193.99	0.10000	0.062429	16.018	586.23	686.08	5.7594	1.5720	2.1045	364.33	9.8080	7.5894e-06	0.021244	
194.88	0.10000	0.062138	16.093	587.64	687.95	5.7690	1.5724	2.1046	365.18	9.7283	7.6221e-06	0.021347	
195.77	0.10000	0.061850	16.168	589.04	689.82	5.7786	1.5727	2.1048	366.02	9.6496	7.6548e-06	0.021450	
196.66	0.10000	0.061564	16.243	590.45	691.70	5.7882	1.5731	2.1050	366.86	9.5718	7.6875e-06	0.021553	
197.56	0.10000	0.061281	16.318	591.86	693.57	5.7977	1.5734	2.1052	367.70	9.4951	7.7202e-06	0.021656	
198.45	0.10000	0.061001	16.393	593.26	695.45	5.8072	1.5738	2.1054	368.53	9.4193	7.7528e-06	0.021760	
199.34	0.10000	0.060723	16.468	594.67	697.32	5.8166	1.5742	2.1057	369.36	9.3445	7.7854e-06	0.021864	
200.23	0.10000	0.060448	16.543	596.08	699.20	5.8260	1.5746	2.1059	370.19	9.2705	7.8179e-06	0.021968	
201.12	0.10000	0.060175	16.618	597.49	701.07	5.8353	1.5750	2.1062	371.02	9.1975	7.8504e-06	0.022072	
202.01	0.10000	0.059905	16.693	598.90	702.95	5.8446	1.5754	2.1064	371.85	9.1254	7.8829e-06	0.022176	
202.90	0.10000	0.059637	16.768	600.31	704.83	5.8539	1.5759	2.1067	372.67	9.0541	7.9154e-06	0.022281	
203.79	0.10000	0.059372	16.843	601.71	706.70	5.8631	1.5763	2.1070	373.49	8.9836	7.9478e-06	0.022385	
204.68	0.10000	0.059109	16.918	603.12	708.58	5.8723	1.5768	2.1074	374.31	8.9140	7.9802e-06	0.022490	
205.57	0.10000	0.058849	16.993	604.53	710.46	5.8815	1.5773	2.1077	375.12	8.8452	8.0125e-06	0.022595	
206.46	0.10000	0.058590	17.068	605.94	712.33	5.8906	1.5778	2.1081	375.94	8.7772	8.0448e-06	0.022699	
207.35	0.10000	0.058334	17.143	607.35	714.21	5.8997	1.5783	2.1084	376.75	8.7100	8.0771e-06	0.022804	
208.24	0.10000	0.058081	17.217	608.77	716.09	5.9087	1.5788	2.1088	377.56	8.6436	8.1094e-06	0.022909	
209.13	0.10000	0.057829	17.292	610.18	717.97	5.9177	1.5793	2.1092	378.36	8.5779	8.1416e-06	0.023014	
210.02	0.10000	0.057580	17.367	611.59	719.84	5.9267	1.5799	2.1096	379.17	8.5130	8.1738e-06	0.023120	
210.91	0.10000	0.057333	17.442	613.00	721.72	5.9356	1.5804	2.1101	379.97	8.4487	8.2059e-06	0.023225	
211.80	0.10000	0.057088	17.517	614.41	723.60	5.9445	1.5810	2.1105	380.77	8.3852	8.2380e-06	0.023330	
212.69	0.10000	0.056845	17.592	615.83	725.48	5.9533	1.5816	2.1110	381.56	8.3224	8.2701e-06	0.023436	
213.58	0.10000	0.056604	17.667	617.24	727.36	5.9621	1.5822	2.1115	382.36	8.2603	8.3021e-06	0.023541	
214.47	0.10000	0.056365	17.741	618.65	729.24	5.9709	1.5828	2.1120	383.15	8.1989	8.3342e-06	0.023647	
215.37	0.10000	0.056129	17.816	620.07	731.12	5.9797	1.5834	2.1125	383.94	8.1382	8.3661e-06	0.023753	
216.26	0.10000	0.055894	17.891	621.48	733.00	5.9884	1.5841	2.1130	384.73	8.0780	8.3981e-06	0.023859	
217.15	0.10000	0.055661	17.966	622.90	734.89	5.9971	1.5847	2.1136	385.51	8.0186	8.4300e-06	0.023965	
218.04	0.10000	0.055431	18.041	624.32	736.77	6.0057	1.5854	2.1141	386.29	7.9598	8.4618e-06	0.024071	
218.93	0.10000	0.055202	18.115	625.73	738.65	6.0144	1.5861	2.1147	387.07	7.9015	8.4937e-06	0.024177	
219.82	0.10000	0.054975	18.190	627.15	740.54	6.0229	1.5868	2.1153	387.85	7.8439	8.5255e-06	0.024284	
220.71	0.10000	0.054750	18.265	628.57	742.42	6.0315	1.5875	2.1159	388.63	7.7869	8.5572e-06	0.024390	
221.60	0.10000	0.054527	18.340	629.99	744.30	6.0400	1.5882	2.1165	389.40	7.7305	8.5890e-06	0.024497	
222.49	0.10000	0.054305	18.414	631.41	746.19	6.0485	1.5890	2.1172	390.17	7.6747	8.6207e-06	0.024603	
223.38	0.10000	0.054086	18.489	632.83	748.07	6.0570	1.5897	2.1178	390.94	7.6195	8.6523e-06	0.024710	
224.27	0.10000	0.053868	18.564	634.25	749.96	6.0654	1.5905	2.1185	391.71	7.5648	8.6839e-06	0.024817	
225.16	0.10000	0.053652	18.639	635.67	751.85	6.0738	1.5913	2.1192	392.48	7.5106	8.7155e-06	0.024924	
226.05	0.10000	0.053438	18.713	637.09	753.74	6.0822	1.5921	2.1199	393.24	7.4570	8.7471e-06	0.025031	
226.94	0.10000	0.053225	18.788	638.51	755.62	6.0905	1.5929	2.1206	394.00	7.4040	8.7786e-06	0.025138	
227.83	0.10000	0.053015	18.863	639.93	757.51	6.0988	1.5938	2.1214	394.76	7.3514	8.8101e-06	0.025246	
228.72	0.10000	0.052805	18.937	641.36	759.40	6.1071	1.5946	2.1221	395.52	7.2994	8.8415e-06	0.025353	
229.61	0.10000	0.052598	19.012	642.78	761.29	6.1153	1.5955	2.1229	396.27	7.2479	8.8729e-06	0.025461	
230.50	0.10000	0.052392	19.087	644.21	763.18	6.1235	1.5964	2.1237	397.02	7.1969	8.9043e-06	0.025569	
231.39	0.10000	0.052188	19.162	645.63	765.07	6.1317	1.5973	2.1245	397.77	7.1464	8.9357e-06	0.025677	
232.29	0.10000	0.051985	19.236	647.06	766.97	6.1399	1.5982	2.1253	398.52	7.0964	8.9670e-06	0.025785	
233.18	0.10000	0.051784	19.311	648.49	768.86	6.1480	1.5991	2.1261	399.26	7.0468	8.9982e-06	0.025893	
234.07	0.10000	0.051585	19.386	649.92	770.75	6.1561	1.6000	2.1270	400.01	6.9978	9.0295e-06	0.026001	
234.96	0.10000	0.051387	19.460	651.35	772.65	6.1642	1.6010	2.1279	400.75	6.9492	9.0607e-06	0.026110	
235.85	0.10000	0.051191	19.535	652.78	774.54	6.1723	1.6020	2.1288	401.49	6.9010	9.0918e-06	0.026219	
236.74	0.10000	0.050996	19.609	654.21	776.44	6.1803	1.6029	2.1297	402.23	6.8533	9.1230e-06	0.026327	
237.63	0.10000	0.050802	19.684	655.64	778.34	6.1883	1.6039	2.1306	402.96	6.8061	9.1541e-06	0.026436	
238.52	0.10000	0.050610	19.759	657.07	780.23	6.1963	1.6050	2.1315	403.69	6.7592	9.1851e-06	0.026545	
239.41	0.10000	0.050420	19.833	658.50	782.13	6.2042	1.6060	2.1325	404.43	6.7129	9.2161e-06	0.026655	
240.30	0.10000	0.050231	19.908	659.94	784.03	6.2121	1.6070	2.1335	405.15	6.6669	9.2471e-06	0.026764	
241.19	0.10000	0.050043	19.983	661.37	785.93	6.2200	1.6081	2.1344	405.88	6.6214	9.2781e-06	0.026874	
242.08	0.10000	0.049857	20.057	662.81	787.83	6.2279	1.6092	2.1354	406.61	6.5763	9.3090e-06	0.026983	
242.97	0.10000	0.049673	20.132	664.25	789.73	6.2357	1.6103	2.1365	407.33	6.5315	9.3399e-06	0.027093	
243.86	0.10000	0.049489	20.206	665.68	791.64	6.2435	1.6114	2.1375	408.05	6.4872	9.3707e-06	0.027203	
244.75	0.10000	0.049307	20.281	667.12	793.54	6.2513	1.6125	2.1386	408.77	6.4433	9.4015e-06	0.027313	
245.64	0.10000	0.049126	20.356	668.56	795.45	6.2591	1.6137	2.1396	409.48	6.3998	9.4323e-06	0.027424	
246.53	0.10000	0.048947	20.430	670.00	797.35	6.2668	1.6148	2.1407	410.20	6.3567	9.4631e-06	0.027534	
247.42	0.10000	0.048769	20.505	671.45	799.26	6.2746	1.6160	2.1418	410.91	6.3139	9.4938e-06	0.027645	
248.31	0.10000	0.048592	20.579	672.89	801.17	6.2823	1.6172	2.1430	411.62	6.2715	9.5244e-06	0.027756	
249.20	0.10000	0.048417	20.654	674.33	803.08	6.2899	1.6184	2.1441	412.33	6.2295	9.5551e-06	0.027867	
250.10	0.10000	0.048243	20.729	675.78	804.99	6.2976	1.6196	2.1452	413.04	6.1879	9.5857e-06	0.027978	
250.99	0.10000	0.048070	20.803	677.22	806.90	6.3052	1.6208	2.1464	413.74	6.1466	9.6162e-06	0.028090	
251.88	0.10000	0.047898	20.878	678.67	808.81	6.3128	1.6221	2.1476	414.45	6.1057	9.6468e-06	0.028201	
252.77	0.10000	0.047728	20.952	680.12	810.72	6.3204	1.6234	2.1488	415.15	6.0651	9.6772e-06	0.028313	
253.66	0.10000	0.047558	21.027	681.57	812.64	6.3280	1.6247	2.1500	415.85	6.0249	9.7077e-06	0.028425	
254.55	0.10000	0.047390	21.101	683.02	814.55	6.3355	1.6260	2.1513	416.54	5.9850	9.7381e-06	0.028537	
255.44	0.10000	0.047224	21.176	684.47	816.47	6.3430	1.6273	2.1525	417.24	5.9454	9.7685e-06	0.028650	
256.33	0.10000	0.047058	21.250	685.92	818.38	6.3505	1.6286	2.1538	417.93	5.9062	9.7989e-06	0.028762	
257.22	0.10000	0.046894	21.325	687.38	820.30	6.3580	1.6300	2.1551	418.62	5.8673	9.8292e-06	0.028875	
258.11	0.10000	0.046730	21.399	688.83	822.22	6.3654	1.6313	2.1564	419.31	5.8288	9.8595e-06	0.028988	
259.00	0.10000	0.046568	21.474	690.29	824.14	6.3729	1.6327	2.1577	420.00	5.7905	9.8897e-06	0.029101	
259.89	0.10000	0.046407	21.548	691.75	826.07	6.3803	1.6341	2.1591	420.68	5.7526	9.9199e-06	0.029214	
260.78	0.10000	0.046247	21.623	693.21	827.99	6.3877	1.6355	2.1604	421.37	5.7150	9.9501e-06	0.029328	
261.67	0.10000	0.046088	21.698	694.67	829.91	6.3950	1.6369	2.1618	422.05	5.6777	9.9802e-06	0.029442	
262.56	0.10000	0.045931	21.772	696.13	831.84	6.4024	1.6384	2.1632	422.73	5.6407	1.0010e-05	0.029556	
263.45	0.10000	0.045774	21.847	697.59	833.77	6.4097	1.6398	2.1646	423.41	5.6040	1.0040e-05	0.029670	
264.34	0.10000	0.045618	21.921	699.05	835.69	6.4170	1.6413	2.1660	424.08	5.5676	1.0070e-05	0.029784	
265.23	0.10000	0.045464	21.996	700.52	837.62	6.4243	1.6428	2.1674	424.76	5.5315	1.0100e-05	0.029899	
266.12	0.10000	0.045310	22.070	701.99	839.55	6.4316	1.6443	2.1689	425.43	5.4957	1.0130e-05	0.030014	
267.02	0.10000	0.045158	22.144	703.45	841.49	6.4388	1.6458	2.1704	426.10	5.4602	1.0160e-05	0.030129	
267.91	0.10000	0.045007	22.219	704.92	843.42	6.4460	1.6474	2.1718	426.77	5.4250	1.0190e-05	0.030244	
268.80	0.10000	0.044856	22.293	706.39	845.35	6.4532	1.6489	2.1733	427.44	5.3900	1.0220e-05	0.030359	
269.69	0.10000	0.044707	22.368	707.86	847.29	6.4604	1.6505	2.1749	428.10	5.3554	1.0250e-05	0.030475	
270.58	0.10000	0.044558	22.442	709.34	849.23	6.4676	1.6521	2.1764	428.77	5.3210	1.0280e-05	0.030591	
271.47	0.10000	0.044411	22.517	710.81	851.17	6.4748	1.6537	2.1779	429.43	5.2869	1.0310e-05	0.030707	
272.36	0.10000	0.044265	22.591	712.29	853.11	6.4819	1.6553	2.1795	430.09	5.2530	1.0339e-05	0.030823	
273.25	0.10000	0.044119	22.666	713.77	855.05	6.4890	1.6569	2.1811	430.75	5.2194	1.0369e-05	0.030940	
274.14	0.10000	0.043975	22.740	715.24	856.99	6.4961	1.6586	2.1827	431.40	5.1861	1.0399e-05	0.031057	
275.03	0.10000	0.043831	22.815	716.72	858.94	6.5032	1.6602	2.1843	432.06	5.1530	1.0428e-05	0.031174	
275.92	0.10000	0.043689	22.889	718.21	860.88	6.5103	1.6619	2.1859	432.71	5.1202	1.0458e-05	0.031291	
276.81	0.10000	0.043547	22.964	719.69	862.83	6.5173	1.6636	2.1876	433.36	5.0877	1.0487e-05	0.031408	
277.70	0.10000	0.043406	23.038	721.17	864.78	6.5243	1.6653	2.1892	434.01	5.0554	1.0517e-05	0.031526	
278.59	0.10000	0.043267	23.113	722.66	866.73	6.5313	1.6670	2.1909	434.66	5.0233	1.0546e-05	0.031644	
279.48	0.10000	0.043128	23.187	724.15	868.68	6.5383	1.6688	2.1926	435.31	4.9915	1.0576e-05	0.031762	
280.37	0.10000	0.042990	23.261	725.64	870.63	6.5453	1.6705	2.1943	435.95	4.9600	1.0605e-05	0.031881	
281.26	0.10000	0.042853	23.336	727.13	872.59	6.5523	1.6723	2.1960	436.59	4.9287	1.0635e-05	0.031999	
282.15	0.10000	0.042716	23.410	728.62	874.55	6.5592	1.6741	2.1978	437.23	4.8976	1.0664e-05	0.032118	
283.04	0.10000	0.042581	23.485	730.12	876.50	6.5661	1.6759	2.1995	437.87	4.8668	1.0693e-05	0.032237	
283.93	0.10000	0.042446	23.559	731.61	878.46	6.5731	1.6777	2.2013	438.51	4.8362	1.0723e-05	0.032357	
284.83	0.10000	0.042313	23.634	733.11	880.42	6.5800	1.6795	2.2031	439.15	4.8058	1.0752e-05	0.032476	
285.72	0.10000	0.042180	23.708	734.61	882.39	6.5868	1.6813	2.2049	439.78	4.7756	1.0781e-05	0.032596	
286.61	0.10000	0.042048	23.782	736.11	884.35	6.5937	1.6832	2.2067	440.41	4.7457	1.0810e-05	0.032716	
287.50	0.10000	0.041917	23.857	737.61	886.32	6.6005	1.6851	2.2085	441.05	4.7160	1.0839e-05	0.032836	
288.39	0.10000	0.041786	23.931	739.11	888.28	6.6074	1.6869	2.2104	441.67	4.6866	1.0868e-05	0.032957	
289.28	0.10000	0.041657	24.006	740.62	890.25	6.6142	1.6888	2.2123	442.30	4.6573	1.0898e-05	0.033078	
290.17	0.10000	0.041528	24.080	742.13	892.22	6.6210	1.6908	2.2141	442.93	4.6283	1.0927e-05	0.033199	
291.06	0.10000	0.041400	24.154	743.63	894.20	6.6278	1.6927	2.2160	443.55	4.5995	1.0956e-05	0.033320	
291.95	0.10000	0.041273	24.229	745.14	896.17	6.6346	1.6946	2.2179	444.18	4.5709	1.0985e-05	0.033442	
292.84	0.10000	0.041147	24.303	746.66	898.15	6.6413	1.6966	2.2198	444.80	4.5425	1.1014e-05	0.033563	
293.73	0.10000	0.041021	24.378	748.17	900.12	6.6481	1.6986	2.2218	445.42	4.5143	1.1042e-05	0.033686	
294.62	0.10000	0.040896	24.452	749.69	902.10	6.6548	1.7005	2.2237	446.04	4.4863	1.1071e-05	0.033808	
295.51	0.10000	0.040772	24.526	751.20	904.08	6.6615	1.7025	2.2257	446.65	4.4585	1.1100e-05	0.033930	
296.40	0.10000	0.040649	24.601	752.72	906.07	6.6682	1.7046	2.2277	447.27	4.4310	1.1129e-05	0.034053	
297.29	0.10000	0.040527	24.675	754.24	908.05	6.6749	1.7066	2.2297	447.88	4.4036	1.1158e-05	0.034176	
298.18	0.10000	0.040405	24.750	755.77	910.04	6.6816	1.7086	2.2317	448.50	4.3765	1.1186e-05	0.034300	
299.07	0.10000	0.040284	24.824	757.29	912.03	6.6882	1.7107	2.2337	449.11	4.3495	1.1215e-05	0.034423	
299.96	0.10000	0.040163	24.898	758.82	914.02	6.6949	1.7128	2.2357	449.72	4.3227	1.1244e-05	0.034547	
300.85	0.10000	0.040044	24.973	760.35	916.01	6.7015	1.7148	2.2378	450.32	4.2961	1.1273e-05	0.034671	
301.74	0.10000	0.039925	25.047	761.88	918.00	6.7081	1.7169	2.2398	450.93	4.2698	1.1301e-05	0.034796	
302.64	0.10000	0.039807	25.121	763.41	920.00	6.7147	1.7190	2.2419	451.54	4.2436	1.1330e-05	0.034920	
303.53	0.10000	0.039689	25.196	764.94	922.00	6.7213	1.7212	2.2440	452.14	4.2176	1.1358e-05	0.035045	
304.42	0.10000	0.039572	25.270	766.48	923.99	6.7279	1.7233	2.2461	452.74	4.1918	1.1387e-05	0.035170	
305.31	0.10000	0.039456	25.345	768.02	926.00	6.7344	1.7255	2.2482	453.34	4.1661	1.1415e-05	0.035296	
306.20	0.10000	0.039341	25.419	769.55	928.00	6.7410	1.7276	2.2504	453.94	4.1407	1.1444e-05	0.035421	
307.09	0.10000	0.039226	25.493	771.10	930.00	6.7475	1.7298	2.2525	454.54	4.1154	1.1472e-05	0.035547	
307.98	0.10000	0.039112	25.568	772.64	932.01	6.7541	1.7320	2.2547	455.14	4.0903	1.1501e-05	0.035673	
308.87	0.10000	0.038999	25.642	774.18	934.02	6.7606	1.7342	2.2568	455.73	4.0654	1.1529e-05	0.035800	
309.76	0.10000	0.038886	25.716	775.73	936.03	6.7671	1.7364	2.2590	456.32	4.0407	1.1557e-05	0.035926	
310.65	0.10000	0.038774	25.791	777.28	938.04	6.7736	1.7386	2.2612	456.92	4.0162	1.1586e-05	0.036053	
311.54	0.10000	0.038662	25.865	778.83	940.06	6.7800	1.7409	2.2634	457.51	3.9918	1.1614e-05	0.036181	
312.43	0.10000	0.038551	25.939	780.39	942.07	6.7865	1.7431	2.2657	458.10	3.9676	1.1642e-05	0.036308	
313.32	0.10000	0.038441	26.014	781.94	944.09	6.7930	1.7454	2.2679	458.68	3.9435	1.1670e-05	0.036436	
314.21	0.10000	0.038332	26.088	783.50	946.11	6.7994	1.7477	2.2701	459.27	3.9197	1.1698e-05	0.036564	
315.10	0.10000	0.038223	26.162	785.06	948.14	6.8058	1.7500	2.2724	459.86	3.8960	1.1726e-05	0.036692	
315.99	0.10000	0.038114	26.237	786.62	950.16	6.8122	1.7523	2.2747	460.44	3.8725	1.1755e-05	0.036821	
316.88	0.10000	0.038007	26.311	788.18	952.19	6.8186	1.7546	2.2770	461.02	3.8491	1.1783e-05	0.036950	
317.77	0.10000	0.037900	26.385	789.75	954.22	6.8250	1.7569	2.2793	461.60	3.8259	1.1811e-05	0.037079	
318.66	0.10000	0.037793	26.460	791.31	956.25	6.8314	1.7593	2.2816	462.18	3.8029	1.1839e-05	0.037208	
319.56	0.10000	0.037687	26.534	792.88	958.28	6.8378	1.7616	2.2839	462.76	3.7800	1.1867e-05	0.037338	
320.45	0.10000	0.037582	26.608	794.46	960.31	6.8441	1.7640	2.2863	463.34	3.7573	1.1895e-05	0.037468	
321.34	0.10000	0.037477	26.683	796.03	962.35	6.8505	1.7664	2.2886	463.92	3.7347	1.1923e-05	0.037598	
322.23	0.10000	0.037373	26.757	797.60	964.39	6.8568	1.7687	2.2910	464.49	3.7123	1.1950e-05	0.037728	
323.12	0.10000	0.037270	26.831	799.18	966.43	6.8632	1.7711	2.2933	465.06	3.6901	1.1978e-05	0.037859	
324.01	0.10000	0.037167	26.906	800.76	968.47	6.8695	1.7736	2.2957	465.64	3.6680	1.2006e-05	0.037990	
324.90	0.10000	0.037064	26.980	802.35	970.52	6.8758	1.7760	2.2981	466.21	3.6460	1.2034e-05	0.038121	
325.79	0.10000	0.036963	27.054	803.93	972.57	6.8821	1.7784	2.3005	466.78	3.6243	1.2062e-05	0.038252	
326.68	0.10000	0.036861	27.129	805.52	974.62	6.8884	1.7809	2.3030	467.34	3.6026	1.2089e-05	0.038384	
327.57	0.10000	0.036761	27.203	807.10	976.67	6.8946	1.7833	2.3054	467.91	3.5811	1.2117e-05	0.038516	
328.46	0.10000	0.036661	27.277	808.70	978.72	6.9009	1.7858	2.3078	468.48	3.5598	1.2145e-05	0.038649	
329.35	0.10000	0.036561	27.352	810.29	980.78	6.9071	1.7883	2.3103	469.04	3.5386	1.2172e-05	0.038781	
330.24	0.10000	0.036462	27.426	811.88	982.84	6.9134	1.7908	2.3128	469.61	3.5176	1.2200e-05	0.038914	
331.13	0.10000	0.036363	27.500	813.48	984.90	6.9196	1.7933	2.3152	470.17	3.4967	1.2228e-05	0.039047	
332.02	0.10000	0.036265	27.574	815.08	986.96	6.9258	1.7958	2.3177	470.73	3.4759	1.2255e-05	0.039180	
332.91	0.10000	0.036168	27.649	816.68	989.03	6.9320	1.7983	2.3202	471.29	3.4553	1.2283e-05	0.039314	
333.80	0.10000	0.036071	27.723	818.29	991.09	6.9382	1.8008	2.3227	471.85	3.4348	1.2310e-05	0.039448	
334.69	0.10000	0.035975	27.797	819.89	993.16	6.9444	1.8034	2.3253	472.40	3.4145	1.2337e-05	0.039582	
335.58	0.10000	0.035879	27.872	821.50	995.24	6.9506	1.8059	2.3278	472.96	3.3943	1.2365e-05	0.039717	
336.47	0.10000	0.035783	27.946	823.11	997.31	6.9568	1.8085	2.3303	473.52	3.3742	1.2392e-05	0.039851	
337.37	0.10000	0.035688	28.020	824.73	999.39	6.9630	1.8111	2.3329	474.07	3.3543	1.2420e-05	0.039986	
338.26	0.10000	0.035594	28.095	826.34	1001.5	6.9691	1.8137	2.3354	474.62	3.3345	1.2447e-05	0.040121	
339.15	0.10000	0.035500	28.169	827.96	1003.5	6.9753	1.8163	2.3380	475.17	3.3149	1.2474e-05	0.040257	
340.04	0.10000	0.035407	28.243	829.58	1005.6	6.9814	1.8189	2.3406	475.73	3.2954	1.2502e-05	0.040393	
340.93	0.10000	0.035314	28.317	831.20	1007.7	6.9875	1.8215	2.3432	476.27	3.2760	1.2529e-05	0.040529	
341.82	0.10000	0.035222	28.392	832.83	1009.8	6.9936	1.8241	2.3458	476.82	3.2567	1.2556e-05	0.040665	
342.71	0.10000	0.035130	28.466	834.45	1011.9	6.9997	1.8267	2.3484	477.37	3.2376	1.2583e-05	0.040802	
343.60	0.10000	0.035038	28.540	836.08	1014.0	7.0058	1.8294	2.3510	477.92	3.2186	1.2610e-05	0.040938	
344.49	0.10000	0.034947	28.615	837.71	1016.1	7.0119	1.8320	2.3537	478.46	3.1997	1.2637e-05	0.041075	
345.38	0.10000	0.034857	28.689	839.35	1018.2	7.0180	1.8347	2.3563	479.01	3.1810	1.2665e-05	0.041213	
346.27	0.10000	0.034767	28.763	840.99	1020.3	7.0241	1.8374	2.3590	479.55	3.1624	1.2692e-05	0.041350	
347.16	0.10000	0.034677	28.837	842.62	1022.4	7.0301	1.8401	2.3616	480.09	3.1439	1.2719e-05	0.041488	
348.05	0.10000	0.034588	28.912	844.27	1024.5	7.0362	1.8428	2.3643	480.63	3.1255	1.2746e-05	0.041627	
348.94	0.10000	0.034499	28.986	845.91	1026.6	7.0422	1.8455	2.3670	481.17	3.1073	1.2773e-05	0.041765	
349.83	0.10000	0.034411	29.060	847.56	1028.7	7.0483	1.8482	2.3697	481.71	3.0892	1.2800e-05	0.041904	
350.72	0.10000	0.034324	29.135	849.20	1030.8	7.0543	1.8509	2.3724	482.25	3.0712	1.2826e-05	0.042043	
351.61	0.10000	0.034236	29.209	850.85	1032.9	7.0603	1.8536	2.3751	482.78	3.0533	1.2853e-05	0.042182	
352.50	0.10000	0.034149	29.283	852.51	1035.0	7.0663	1.8564	2.3778	483.32	3.0356	1.2880e-05	0.042321	
353.39	0.10000	0.034063	29.357	854.16	1037.2	7.0723	1.8591	2.3806	483.85	3.0179	1.2907e-05	0.042461	
354.29	0.10000	0.033977	29.432	855.82	1039.3	7.0783	1.8619	2.3833	484.39	3.0004	1.2934e-05	0.042601	
355.18	0.10000	0.033892	29.506	857.48	1041.4	7.0843	1.8646	2.3860	484.92	2.9830	1.2961e-05	0.042741	
356.07	0.10000	0.033806	29.580	859.15	1043.5	7.0903	1.8674	2.3888	485.45	2.9657	1.2987e-05	0.042882	
356.96	0.10000	0.033722	29.654	860.81	1045.7	7.0963	1.8702	2.3916	485.98	2.9485	1.3014e-05	0.043022	
357.85	0.10000	0.033638	29.729	862.48	1047.8	7.1022	1.8730	2.3943	486.51	2.9315	1.3041e-05	0.043164	
358.74	0.10000	0.033554	29.803	864.15	1049.9	7.1082	1.8758	2.3971	487.04	2.9145	1.3067e-05	0.043305	
359.63	0.10000	0.033470	29.877	865.82	1052.1	7.1141	1.8786	2.3999	487.57	2.8977	1.3094e-05	0.043446	
360.52	0.10000	0.033387	29.951	867.50	1054.2	7.1201	1.8814	2.4027	488.09	2.8810	1.3121e-05	0.043588	
361.41	0.10000	0.033305	30.026	869.18	1056.3	7.1260	1.8842	2.4055	488.62	2.8644	1.3147e-05	0.043730	
362.30	0.10000	0.033223	30.100	870.86	1058.5	7.1319	1.8871	2.4083	489.14	2.8478	1.3174e-05	0.043873	
363.19	0.10000	0.033141	30.174	872.54	1060.6	7.1378	1.8899	2.4112	489.67	2.8315	1.3200e-05	0.044015	
364.08	0.10000	0.033060	30.248	874.23	1062.8	7.1437	1.8928	2.4140	490.19	2.8152	1.3227e-05	0.044158	
364.97	0.10000	0.032979	30.323	875.91	1064.9	7.1496	1.8956	2.4168	490.71	2.7990	1.3253e-05	0.044301	
365.86	0.10000	0.032898	30.397	877.60	1067.1	7.1555	1.8985	2.4197	491.23	2.7829	1.3280e-05	0.044444	
366.75	0.10000	0.032818	30.471	879.30	1069.2	7.1614	1.9014	2.4225	491.75	2.7670	1.3306e-05	0.044588	
367.64	0.10000	0.032738	30.545	880.99	1071.4	7.1673	1.9042	2.4254	492.27	2.7511	1.3332e-05	0.044732	
368.53	0.10000	0.032659	30.620	882.69	1073.6	7.1732	1.9071	2.4283	492.79	2.7353	1.3359e-05	0.044876	
369.42	0.10000	0.032580	30.694	884.39	1075.7	7.1790	1.9100	2.4311	493.31	2.7197	1.3385e-05	0.045020	
370.31	0.10000	0.032501	30.768	886.10	1077.9	7.1849	1.9129	2.4340	493.82	2.7041	1.3411e-05	0.045165	
371.20	0.10000	0.032423	30.842	887.80	1080.1	7.1907	1.9158	2.4369	494.34	2.6887	1.3438e-05	0.045310	
372.10	0.10000	0.032345	30.917	889.51	1082.2	7.1966	1.9188	2.4398	494.85	2.6733	1.3464e-05	0.045455	
372.99	0.10000	0.032268	30.991	891.22	1084.4	7.2024	1.9217	2.4427	495.37	2.6581	1.3490e-05	0.045600	
373.88	0.10000	0.032190	31.065	892.94	1086.6	7.2082	1.9246	2.4456	495.88	2.6429	1.3516e-05	0.045746	
374.77	0.10000	0.032114	31.139	894.65	1088.8	7.2141	1.9275	2.4486	496.39	2.6279	1.3542e-05	0.045892	
375.66	0.10000	0.032037	31.214	896.37	1090.9	7.2199	1.9305	2.4515	496.90	2.6129	1.3568e-05	0.046038	
376.55	0.10000	0.031961	31.288	898.09	1093.1	7.2257	1.9334	2.4544	497.41	2.5981	1.3595e-05	0.046184	
377.44	0.10000	0.031886	31.362	899.82	1095.3	7.2315	1.9364	2.4574	497.92	2.5833	1.3621e-05	0.046331	
378.33	0.10000	0.031810	31.436	901.54	1097.5	7.2373	1.9394	2.4603	498.43	2.5686	1.3647e-05	0.046478	
379.22	0.10000	0.031735	31.511	903.27	1099.7	7.2431	1.9423	2.4633	498.94	2.5541	1.3673e-05	0.046625	
380.11	0.10000	0.031661	31.585	905.01	1101.9	7.2489	1.9453	2.4662	499.45	2.5396	1.3699e-05	0.046772	
381.00	0.10000	0.031587	31.659	906.74	1104.1	7.2546	1.9483	2.4692	499.95	2.5252	1.3725e-05	0.046920	
381.89	0.10000	0.031513	31.733	908.48	1106.3	7.2604	1.9513	2.4722	500.46	2.5109	1.3751e-05	0.047068	
382.78	0.10000	0.031439	31.807	910.22	1108.5	7.2662	1.9543	2.4752	500.96	2.4967	1.3777e-05	0.047216	
383.67	0.10000	0.031366	31.882	911.96	1110.7	7.2719	1.9573	2.4782	501.47	2.4826	1.3802e-05	0.047364	
384.56	0.10000	0.031293	31.956	913.71	1112.9	7.2777	1.9603	2.4812	501.97	2.4686	1.3828e-05	0.047513	
385.45	0.10000	0.031221	32.030	915.45	1115.1	7.2834	1.9633	2.4842	502.47	2.4547	1.3854e-05	0.047662	
386.34	0.10000	0.031148	32.104	917.21	1117.3	7.2891	1.9663	2.4872	502.97	2.4409	1.3880e-05	0.047811	
387.23	0.10000	0.031077	32.179	918.96	1119.5	7.2949	1.9694	2.4902	503.47	2.4271	1.3906e-05	0.047960	
388.12	0.10000	0.031005	32.253	920.72	1121.8	7.3006	1.9724	2.4932	503.97	2.4135	1.3931e-05	0.048110	
389.01	0.10000	0.030934	32.327	922.47	1124.0	7.3063	1.9754	2.4962	504.47	2.3999	1.3957e-05	0.048260	
389.91	0.10000	0.030863	32.401	924.24	1126.2	7.3120	1.9785	2.4992	504.97	2.3864	1.3983e-05	0.048410	
390.80	0.10000	0.030792	32.475	926.00	1128.4	7.3177	1.9815	2.5023	505.47	2.3730	1.4008e-05	0.048560	
391.69	0.10000	0.030722	32.550	927.77	1130.7	7.3234	1.9846	2.5053	505.96	2.3597	1.4034e-05	0.048710	
392.58	0.10000	0.030652	32.624	929.54	1132.9	7.3291	1.9876	2.5084	506.46	2.3465	1.4060e-05	0.048861	
393.47	0.10000	0.030583	32.698	931.31	1135.1	7.3348	1.9907	2.5114	506.95	2.3333	1.4085e-05	0.049012	
394.36	0.10000	0.030514	32.772	933.08	1137.4	7.3405	1.9938	2.5145	507.45	2.3203	1.4111e-05	0.049163	
395.25	0.10000	0.030445	32.847	934.86	1139.6	7.3462	1.9969	2.5176	507.94	2.3073	1.4136e-05	0.049315	
396.14	0.10000	0.030376	32.921	936.64	1141.8	7.3518	1.9999	2.5206	508.43	2.2944	1.4162e-05	0.049466	
397.03	0.10000	0.030308	32.995	938.43	1144.1	7.3575	2.0030	2.5237	508.93	2.2816	1.4187e-05	0.049618	
397.92	0.10000	0.030240	33.069	940.21	1146.3	7.3632	2.0061	2.5268	509.42	2.2689	1.4213e-05	0.049770	
398.81	0.10000	0.030172	33.143	942.00	1148.6	7.3688	2.0092	2.5299	509.91	2.2562	1.4238e-05	0.049923	
399.70	0.10000	0.030104	33.218	943.79	1150.8	7.3745	2.0123	2.5330	510.40	2.2437	1.4264e-05	0.050076	
400.59	0.10000	0.030037	33.292	945.59	1153.1	7.3801	2.0154	2.5360	510.89	2.2312	1.4289e-05	0.050228	
401.48	0.10000	0.029971	33.366	947.38	1155.4	7.3857	2.0185	2.5391	511.37	2.2188	1.4314e-05	0.050381	
402.37	0.10000	0.029904	33.440	949.18	1157.6	7.3914	2.0217	2.5423	511.86	2.2064	1.4340e-05	0.050535	
403.26	0.10000	0.029838	33.514	950.99	1159.9	7.3970	2.0248	2.5454	512.35	2.1942	1.4365e-05	0.050688	
404.15	0.10000	0.029772	33.589	952.79	1162.2	7.4026	2.0279	2.5485	512.84	2.1820	1.4390e-05	0.050842	
405.04	0.10000	0.029706	33.663	954.60	1164.4	7.4082	2.0310	2.5516	513.32	2.1699	1.4416e-05	0.050996	
405.93	0.10000	0.029641	33.737	956.41	1166.7	7.4138	2.0342	2.5547	513.81	2.1579	1.4441e-05	0.051150	
406.83	0.10000	0.029576	33.811	958.23	1169.0	7.4194	2.0373	2.5579	514.29	2.1459	1.4466e-05	0.051305	
407.72	0.10000	0.029511	33.885	960.04	1171.3	7.4250	2.0405	2.5610	514.77	2.1341	1.4491e-05	0.051459	
408.61	0.10000	0.029447	33.960	961.86	1173.5	7.4306	2.0436	2.5641	515.26	2.1223	1.4516e-05	0.051614	
409.50	0.10000	0.029382	34.034	963.68	1175.8	7.4362	2.0468	2.5673	515.74	2.1105	1.4542e-05	0.051769	
410.39	0.10000	0.029319	34.108	965.51	1178.1	7.4418	2.0499	2.5704	516.22	2.0989	1.4567e-05	0.051925	
411.28	0.10000	0.029255	34.182	967.34	1180.4	7.4473	2.0531	2.5736	516.70	2.0873	1.4592e-05	0.052080	
412.17	0.10000	0.029192	34.256	969.17	1182.7	7.4529	2.0563	2.5767	517.18	2.0758	1.4617e-05	0.052236	
413.06	0.10000	0.029128	34.331	971.00	1185.0	7.4585	2.0594	2.5799	517.66	2.0644	1.4642e-05	0.052392	
413.95	0.10000	0.029066	34.405	972.84	1187.3	7.4640	2.0626	2.5830	518.14	2.0530	1.4667e-05	0.052548	
414.84	0.10000	0.029003	34.479	974.68	1189.6	7.4696	2.0658	2.5862	518.62	2.0417	1.4692e-05	0.052705	
415.73	0.10000	0.028941	34.553	976.52	1191.9	7.4751	2.0690	2.5894	519.10	2.0305	1.4717e-05	0.052861	
416.62	0.10000	0.028879	34.627	978.36	1194.2	7.4807	2.0721	2.5926	519.57	2.0194	1.4742e-05	0.053018	
417.51	0.10000	0.028817	34.702	980.21	1196.5	7.4862	2.0753	2.5957	520.05	2.0083	1.4767e-05	0.053175	
418.40	0.10000	0.028756	34.776	982.06	1198.8	7.4918	2.0785	2.5989	520.52	1.9973	1.4792e-05	0.053333	
419.29	0.10000	0.028694	34.850	983.92	1201.1	7.4973	2.0817	2.6021	521.00	1.9863	1.4816e-05	0.053490	
420.18	0.10000	0.028633	34.924	985.77	1203.5	7.5028	2.0849	2.6053	521.47	1.9754	1.4841e-05	0.053648	
421.07	0.10000	0.028573	34.998	987.63	1205.8	7.5083	2.0881	2.6085	521.95	1.9646	1.4866e-05	0.053806	
421.96	0.10000	0.028512	35.073	989.49	1208.1	7.5138	2.0913	2.6117	522.42	1.9539	1.4891e-05	0.053964	
422.85	0.10000	0.028452	35.147	991.36	1210.4	7.5194	2.0945	2.6149	522.89	1.9432	1.4916e-05	0.054122	
423.74	0.10000	0.028392	35.221	993.22	1212.8	7.5249	2.0978	2.6181	523.37	1.9326	1.4940e-05	0.054281	
424.64	0.10000	0.028332	35.295	995.10	1215.1	7.5304	2.1010	2.6213	523.84	1.9221	1.4965e-05	0.054440	
425.53	0.10000	0.028273	35.369	996.97	1217.4	7.5359	2.1042	2.6245	524.31	1.9116	1.4990e-05	0.054599	
426.42	0.10000	0.028214	35.444	998.84	1219.8	7.5413	2.1074	2.6277	524.78	1.9012	1.5014e-05	0.054758	
427.31	0.10000	0.028155	35.518	1000.7	1222.1	7.5468	2.1107	2.6309	525.25	1.8908	1.5039e-05	0.054917	
428.20	0.10000	0.028096	35.592	1002.6	1224.5	7.5523	2.1139	2.6342	525.72	1.8805	1.5064e-05	0.055077	
429.09	0.10000	0.028038	35.666	1004.5	1226.8	7.5578	2.1171	2.6374	526.19	1.8703	1.5088e-05	0.055237	
429.98	0.10000	0.027980	35.740	1006.4	1229.2	7.5633	2.1204	2.6406	526.65	1.8601	1.5113e-05	0.055397	
430.87	0.10000	0.027922	35.814	1008.3	1231.5	7.5687	2.1236	2.6439	527.12	1.8500	1.5137e-05	0.055557	
431.76	0.10000	0.027864	35.889	1010.2	1233.9	7.5742	2.1268	2.6471	527.59	1.8400	1.5162e-05	0.055718	
432.65	0.10000	0.027806	35.963	1012.1	1236.2	7.5796	2.1301	2.6503	528.05	1.8300	1.5186e-05	0.055878	
433.54	0.10000	0.027749	36.037	1014.0	1238.6	7.5851	2.1333	2.6536	528.52	1.8201	1.5211e-05	0.056039	
434.43	0.10000	0.027692	36.111	1015.9	1241.0	7.5905	2.1366	2.6568	528.98	1.8103	1.5235e-05	0.056200	
435.32	0.10000	0.027635	36.185	1017.8	1243.3	7.5960	2.1398	2.6600	529.45	1.8005	1.5260e-05	0.056361	
436.21	0.10000	0.027579	36.260	1019.7	1245.7	7.6014	2.1431	2.6633	529.91	1.7907	1.5284e-05	0.056523	
437.10	0.10000	0.027523	36.334	1021.6	1248.1	7.6069	2.1464	2.6665	530.38	1.7811	1.5309e-05	0.056685	
437.99	0.10000	0.027467	36.408	1023.5	1250.4	7.6123	2.1496	2.6698	530.84	1.7714	1.5333e-05	0.056846	
438.88	0.10000	0.027411	36.482	1025.4	1252.8	7.6177	2.1529	2.6731	531.30	1.7619	1.5357e-05	0.057008	
439.77	0.10000	0.027355	36.556	1027.3	1255.2	7.6231	2.1562	2.6763	531.76	1.7524	1.5382e-05	0.057171	
440.66	0.10000	0.027300	36.630	1029.3	1257.6	7.6286	2.1594	2.6796	532.22	1.7429	1.5406e-05	0.057333	
441.55	0.10000	0.027245	36.705	1031.2	1260.0	7.6340	2.1627	2.6828	532.68	1.7335	1.5430e-05	0.057496	
442.45	0.10000	0.027190	36.779	1033.1	1262.4	7.6394	2.1660	2.6861	533.14	1.7242	1.5454e-05	0.057659	
443.34	0.10000	0.027135	36.853	1035.0	1264.8	7.6448	2.1693	2.6894	533.60	1.7149	1.5479e-05	0.057822	
444.23	0.10000	0.027080	36.927	1037.0	1267.2	7.6502	2.1725	2.6926	534.06	1.7057	1.5503e-05	0.057985	
445.12	0.10000	0.027026	37.001	1038.9	1269.6	7.6556	2.1758	2.6959	534.52	1.6966	1.5527e-05	0.058148	
446.01	0.10000	0.026972	37.076	1040.9	1272.0	7.6610	2.1791	2.6992	534.98	1.6875	1.5551e-05	0.058312	
446.90	0.10000	0.026918	37.150	1042.8	1274.4	7.6664	2.1824	2.7025	535.44	1.6784	1.5575e-05	0.058476	
447.79	0.10000	0.026865	37.224	1044.7	1276.8	7.6717	2.1857	2.7058	535.89	1.6694	1.5599e-05	0.058640	
448.68	0.10000	0.026811	37.298	1046.7	1279.2	7.6771	2.1890	2.7090	536.35	1.6605	1.5624e-05	0.058804	
449.57	0.10000	0.026758	37.372	1048.6	1281.6	7.6825	2.1923	2.7123	536.80	1.6516	1.5648e-05	0.058968	
450.46	0.10000	0.026705	37.446	1050.6	1284.0	7.6879	2.1956	2.7156	537.26	1.6427	1.5672e-05	0.059133	
451.35	0.10000	0.026652	37.521	1052.6	1286.4	7.6932	2.1988	2.7189	537.72	1.6339	1.5696e-05	0.059298	
452.24	0.10000	0.026600	37.595	1054.5	1288.9	7.6986	2.2021	2.7222	538.17	1.6252	1.5720e-05	0.059463	
453.13	0.10000	0.026547	37.669	1056.5	1291.3	7.7040	2.2054	2.7255	538.62	1.6165	1.5744e-05	0.059628	
454.02	0.10000	0.026495	37.743	1058.4	1293.7	7.7093	2.2087	2.7288	539.08	1.6079	1.5768e-05	0.059793	
454.91	0.10000	0.026443	37.817	1060.4	1296.1	7.7147	2.2121	2.7321	539.53	1.5993	1.5792e-05	0.059959	
455.80	0.10000	0.026391	37.891	1062.4	1298.6	7.7200	2.2154	2.7354	539.98	1.5908	1.5815e-05	0.060124	
456.69	0.10000	0.026340	37.966	1064.4	1301.0	7.7253	2.2187	2.7387	540.43	1.5823	1.5839e-05	0.060290	
457.58	0.10000	0.026288	38.040	1066.3	1303.4	7.7307	2.2220	2.7420	540.88	1.5739	1.5863e-05	0.060456	
458.47	0.10000	0.026237	38.114	1068.3	1305.9	7.7360	2.2253	2.7453	541.34	1.5655	1.5887e-05	0.060622	
459.37	0.10000	0.026186	38.188	1070.3	1308.3	7.7413	2.2286	2.7486	541.79	1.5572	1.5911e-05	0.060789	
460.26	0.10000	0.026135	38.262	1072.3	1310.8	7.7467	2.2319	2.7519	542.24	1.5489	1.5935e-05	0.060955	
461.15	0.10000	0.026085	38.336	1074.3	1313.2	7.7520	2.2352	2.7552	542.68	1.5407	1.5958e-05	0.061122	
462.04	0.10000	0.026035	38.410	1076.3	1315.7	7.7573	2.2385	2.7585	543.13	1.5325	1.5982e-05	0.061289	
462.93	0.10000	0.025984	38.485	1078.3	1318.2	7.7626	2.2419	2.7618	543.58	1.5244	1.6006e-05	0.061456	
463.82	0.10000	0.025934	38.559	1080.3	1320.6	7.7679	2.2452	2.7651	544.03	1.5163	1.6030e-05	0.061624	
464.71	0.10000	0.025885	38.633	1082.3	1323.1	7.7732	2.2485	2.7684	544.48	1.5083	1.6053e-05	0.061791	
465.60	0.10000	0.025835	38.707	1084.3	1325.5	7.7786	2.2518	2.7717	544.92	1.5003	1.6077e-05	0.061959	
466.49	0.10000	0.025786	38.781	1086.3	1328.0	7.7838	2.2551	2.7751	545.37	1.4923	1.6101e-05	0.062127	
467.38	0.10000	0.025736	38.855	1088.3	1330.5	7.7891	2.2585	2.7784	545.82	1.4844	1.6124e-05	0.062295	
468.27	0.10000	0.025687	38.930	1090.3	1333.0	7.7944	2.2618	2.7817	546.26	1.4766	1.6148e-05	0.062463	
469.16	0.10000	0.025639	39.004	1092.3	1335.4	7.7997	2.2651	2.7850	546.71	1.4688	1.6172e-05	0.062631	
470.05	0.10000	0.025590	39.078	1094.3	1337.9	7.8050	2.2685	2.7883	547.15	1.4610	1.6195e-05	0.062800	
470.94	0.10000	0.025541	39.152	1096.4	1340.4	7.8103	2.2718	2.7917	547.60	1.4533	1.6219e-05	0.062968	
471.83	0.10000	0.025493	39.226	1098.4	1342.9	7.8156	2.2751	2.7950	548.04	1.4456	1.6242e-05	0.063137	
472.72	0.10000	0.025445	39.300	1100.4	1345.4	7.8208	2.2784	2.7983	548.48	1.4380	1.6266e-05	0.063306	
473.61	0.10000	0.025397	39.375	1102.4	1347.9	7.8261	2.2818	2.8016	548.93	1.4304	1.6289e-05	0.063476	
474.50	0.10000	0.025349	39.449	1104.5	1350.4	7.8314	2.2851	2.8050	549.37	1.4229	1.6313e-05	0.063645	
475.39	0.10000	0.025302	39.523	1106.5	1352.9	7.8366	2.2885	2.8083	549.81	1.4154	1.6336e-05	0.063815	
476.28	0.10000	0.025254	39.597	1108.6	1355.4	7.8419	2.2918	2.8116	550.25	1.4080	1.6359e-05	0.063984	
477.18	0.10000	0.025207	39.671	1110.6	1357.9	7.8472	2.2951	2.8150	550.69	1.4005	1.6383e-05	0.064154	
478.07	0.10000	0.025160	39.745	1112.6	1360.4	7.8524	2.2985	2.8183	551.13	1.3932	1.6406e-05	0.064324	
478.96	0.10000	0.025113	39.819	1114.7	1362.9	7.8577	2.3018	2.8216	551.57	1.3859	1.6430e-05	0.064494	
479.85	0.10000	0.025067	39.894	1116.7	1365.4	7.8629	2.3051	2.8249	552.01	1.3786	1.6453e-05	0.064665	
480.74	0.10000	0.025020	39.968	1118.8	1367.9	7.8681	2.3085	2.8283	552.45	1.3714	1.6476e-05	0.064835	
481.63	0.10000	0.024974	40.042	1120.9	1370.5	7.8734	2.3118	2.8316	552.89	1.3642	1.6500e-05	0.065006	
482.52	0.10000	0.024928	40.116	1122.9	1373.0	7.8786	2.3152	2.8350	553.33	1.3570	1.6523e-05	0.065177	
483.41	0.10000	0.024882	40.190	1125.0	1375.5	7.8838	2.3185	2.8383	553.77	1.3499	1.6546e-05	0.065348	
484.30	0.10000	0.024836	40.264	1127.0	1378.0	7.8891	2.3218	2.8416	554.21	1.3428	1.6569e-05	0.065519	
485.19	0.10000	0.024790	40.339	1129.1	1380.6	7.8943	2.3252	2.8450	554.64	1.3358	1.6593e-05	0.065691	
486.08	0.10000	0.024745	40.413	1131.2	1383.1	7.8995	2.3285	2.8483	555.08	1.3288	1.6616e-05	0.065862	
486.97	0.10000	0.024699	40.487	1133.3	1385.6	7.9047	2.3319	2.8516	555.52	1.3218	1.6639e-05	0.066034	
487.86	0.10000	0.024654	40.561	1135.3	1388.2	7.9099	2.3352	2.8550	555.95	1.3149	1.6662e-05	0.066206	
488.75	0.10000	0.024609	40.635	1137.4	1390.7	7.9151	2.3386	2.8583	556.39	1.3081	1.6685e-05	0.066378	
489.64	0.10000	0.024564	40.709	1139.5	1393.3	7.9204	2.3419	2.8617	556.82	1.3012	1.6708e-05	0.066550	
490.53	0.10000	0.024520	40.783	1141.6	1395.8	7.9256	2.3453	2.8650	557.26	1.2944	1.6731e-05	0.066722	
491.42	0.10000	0.024475	40.858	1143.7	1398.4	7.9308	2.3486	2.8683	557.69	1.2877	1.6754e-05	0.066895	
492.31	0.10000	0.024431	40.932	1145.8	1400.9	7.9360	2.3520	2.8717	558.13	1.2810	1.6778e-05	0.067067	
493.20	0.10000	0.024387	41.006	1147.9	1403.5	7.9411	2.3553	2.8750	558.56	1.2743	1.6801e-05	0.067240	
494.10	0.10000	0.024343	41.080	1150.0	1406.0	7.9463	2.3587	2.8784	558.99	1.2676	1.6824e-05	0.067413	
494.99	0.10000	0.024299	41.154	1152.1	1408.6	7.9515	2.3620	2.8817	559.43	1.2610	1.6847e-05	0.067586	
495.88	0.10000	0.024255	41.228	1154.2	1411.2	7.9567	2.3654	2.8851	559.86	1.2545	1.6870e-05	0.067759	
496.77	0.10000	0.024212	41.302	1156.3	1413.7	7.9619	2.3687	2.8884	560.29	1.2479	1.6893e-05	0.067933	
497.66	0.10000	0.024168	41.377	1158.4	1416.3	7.9671	2.3721	2.8917	560.72	1.2415	1.6915e-05	0.068106	
498.55	0.10000	0.024125	41.451	1160.5	1418.9	7.9722	2.3754	2.8951	561.15	1.2350	1.6938e-05	0.068280	
499.44	0.10000	0.024082	41.525	1162.6	1421.5	7.9774	2.3788	2.8984	561.58	1.2286	1.6961e-05	0.068454	
500.33	0.10000	0.024039	41.599	1164.8	1424.1	7.9826	2.3821	2.9018	562.02	1.2222	1.6984e-05	0.068628	
501.22	0.10000	0.023996	41.673	1166.9	1426.6	7.9877	2.3855	2.9051	562.45	1.2158	1.7007e-05	0.068802	
502.11	0.10000	0.023954	41.747	1169.0	1429.2	7.9929	2.3888	2.9085	562.87	1.2095	1.7030e-05	0.068976	
503.00	0.10000	0.023911	41.821	1171.1	1431.8	7.9980	2.3922	2.9118	563.30	1.2033	1.7053e-05	0.069151	
503.89	0.10000	0.023869	41.896	1173.3	1434.4	8.0032	2.3955	2.9152	563.73	1.1970	1.7075e-05	0.069326	
504.78	0.10000	0.023827	41.970	1175.4	1437.0	8.0084	2.3989	2.9185	564.16	1.1908	1.7098e-05	0.069500	
505.67	0.10000	0.023785	42.044	1177.5	1439.6	8.0135	2.4022	2.9218	564.59	1.1846	1.7121e-05	0.069675	
506.56	0.10000	0.023743	42.118	1179.7	1442.2	8.0186	2.4056	2.9252	565.02	1.1785	1.7144e-05	0.069850	
507.45	0.10000	0.023701	42.192	1181.8	1444.8	8.0238	2.4089	2.9285	565.44	1.1724	1.7166e-05	0.070025	
508.34	0.10000	0.023660	42.266	1184.0	1447.4	8.0289	2.4123	2.9319	565.87	1.1663	1.7189e-05	0.070201	
509.23	0.10000	0.023618	42.340	1186.1	1450.1	8.0341	2.4156	2.9352	566.30	1.1603	1.7212e-05	0.070376	
510.12	0.10000	0.023577	42.415	1188.3	1452.7	8.0392	2.4190	2.9386	566.72	1.1543	1.7234e-05	0.070552	
511.01	0.10000	0.023536	42.489	1190.4	1455.3	8.0443	2.4223	2.9419	567.15	1.1483	1.7257e-05	0.070728	
511.91	0.10000	0.023495	42.563	1192.6	1457.9	8.0494	2.4257	2.9453	567.58	1.1424	1.7280e-05	0.070904	
512.80	0.10000	0.023454	42.637	1194.8	1460.5	8.0546	2.4290	2.9486	568.00	1.1365	1.7302e-05	0.071080	
513.69	0.10000	0.023413	42.711	1196.9	1463.2	8.0597	2.4324	2.9520	568.42	1.1306	1.7325e-05	0.071256	
514.58	0.10000	0.023373	42.785	1199.1	1465.8	8.0648	2.4357	2.9553	568.85	1.1248	1.7348e-05	0.071432	
515.47	0.10000	0.023332	42.859	1201.3	1468.4	8.0699	2.4391	2.9586	569.27	1.1190	1.7370e-05	0.071609	
516.36	0.10000	0.023292	42.933	1203.4	1471.1	8.0750	2.4424	2.9620	569.70	1.1132	1.7393e-05	0.071785	
517.25	0.10000	0.023252	43.008	1205.6	1473.7	8.0801	2.4458	2.9653	570.12	1.1074	1.7415e-05	0.071962	
518.14	0.10000	0.023212	43.082	1207.8	1476.3	8.0852	2.4491	2.9687	570.54	1.1017	1.7438e-05	0.072139	
519.03	0.10000	0.023172	43.156	1210.0	1479.0	8.0903	2.4525	2.9720	570.97	1.0960	1.7460e-05	0.072316	
519.92	0.10000	0.023132	43.230	1212.2	1481.6	8.0954	2.4558	2.9754	571.39	1.0904	1.7483e-05	0.072493	
520.81	0.10000	0.023092	43.304	1214.4	1484.3	8.1005	2.4592	2.9787	571.81	1.0848	1.7505e-05	0.072670	
521.70	0.10000	0.023053	43.378	1216.5	1486.9	8.1056	2.4625	2.9821	572.23	1.0792	1.7527e-05	0.072848	
522.59	0.10000	0.023014	43.452	1218.7	1489.6	8.1107	2.4659	2.9854	572.65	1.0736	1.7550e-05	0.073025	
523.48	0.10000	0.022974	43.527	1220.9	1492.3	8.1158	2.4692	2.9887	573.07	1.0681	1.7572e-05	0.073203	
524.37	0.10000	0.022935	43.601	1223.1	1494.9	8.1209	2.4726	2.9921	573.49	1.0626	1.7595e-05	0.073381	
525.26	0.10000	0.022897	43.675	1225.3	1497.6	8.1260	2.4759	2.9954	573.91	1.0571	1.7617e-05	0.073559	
526.15	0.10000	0.022858	43.749	1227.6	1500.3	8.1310	2.4793	2.9988	574.33	1.0517	1.7639e-05	0.073737	
527.04	0.10000	0.022819	43.823	1229.8	1502.9	8.1361	2.4826	3.0021	574.75	1.0463	1.7662e-05	0.073915	
527.93	0.10000	0.022781	43.897	1232.0	1505.6	8.1412	2.4859	3.0055	575.17	1.0409	1.7684e-05	0.074094	
528.82	0.10000	0.022742	43.971	1234.2	1508.3	8.1462	2.4893	3.0088	575.59	1.0356	1.7706e-05	0.074272	
529.72	0.10000	0.022704	44.045	1236.4	1511.0	8.1513	2.4926	3.0121	576.01	1.0302	1.7728e-05	0.074451	
530.61	0.10000	0.022666	44.120	1238.6	1513.6	8.1564	2.4960	3.0155	576.43	1.0249	1.7751e-05	0.074630	
531.50	0.10000	0.022628	44.194	1240.9	1516.3	8.1614	2.4993	3.0188	576.84	1.0197	1.7773e-05	0.074809	
532.39	0.10000	0.022590	44.268	1243.1	1519.0	8.1665	2.5027	3.0222	577.26	1.0144	1.7795e-05	0.074988	
533.28	0.10000	0.022552	44.342	1245.3	1521.7	8.1715	2.5060	3.0255	577.68	1.0092	1.7817e-05	0.075167	
534.17	0.10000	0.022514	44.416	1247.5	1524.4	8.1766	2.5094	3.0288	578.09	1.0041	1.7839e-05	0.075346	
535.06	0.10000	0.022477	44.490	1249.8	1527.1	8.1816	2.5127	3.0322	578.51	0.99890	1.7862e-05	0.075525	
535.95	0.10000	0.022439	44.564	1252.0	1529.8	8.1867	2.5160	3.0355	578.93	0.99377	1.7884e-05	0.075705	
536.84	0.10000	0.022402	44.638	1254.3	1532.5	8.1917	2.5194	3.0388	579.34	0.98868	1.7906e-05	0.075885	
537.73	0.10000	0.022365	44.713	1256.5	1535.2	8.1968	2.5227	3.0422	579.76	0.98361	1.7928e-05	0.076064	
538.62	0.10000	0.022328	44.787	1258.8	1537.9	8.2018	2.5261	3.0455	580.17	0.97856	1.7950e-05	0.076244	
539.51	0.10000	0.022291	44.861	1261.0	1540.6	8.2068	2.5294	3.0488	580.59	0.97355	1.7972e-05	0.076424	
540.40	0.10000	0.022254	44.935	1263.3	1543.4	8.2119	2.5327	3.0522	581.00	0.96856	1.7994e-05	0.076605	
541.29	0.10000	0.022218	45.009	1265.5	1546.1	8.2169	2.5361	3.0555	581.42	0.96360	1.8016e-05	0.076785	
542.18	0.10000	0.022181	45.083	1267.8	1548.8	8.2219	2.5394	3.0588	581.83	0.95866	1.8038e-05	0.076965	
543.07	0.10000	0.022145	45.157	1270.0	1551.5	8.2269	2.5427	3.0622	582.24	0.95375	1.8060e-05	0.077146	
543.96	0.10000	0.022109	45.231	1272.3	1554.3	8.2320	2.5461	3.0655	582.66	0.94886	1.8082e-05	0.077327	
544.85	0.10000	0.022072	45.306	1274.6	1557.0	8.2370	2.5494	3.0688	583.07	0.94400	1.8104e-05	0.077507	
545.74	0.10000	0.022036	45.380	1276.9	1559.7	8.2420	2.5527	3.0722	583.48	0.93917	1.8126e-05	0.077688	
546.64	0.10000	0.022000	45.454	1279.1	1562.5	8.2470	2.5561	3.0755	583.89	0.93436	1.8148e-05	0.077869	
547.53	0.10000	0.021965	45.528	1281.4	1565.2	8.2520	2.5594	3.0788	584.30	0.92958	1.8170e-05	0.078050	
548.42	0.10000	0.021929	45.602	1283.7	1567.9	8.2570	2.5627	3.0821	584.72	0.92483	1.8192e-05	0.078232	
549.31	0.10000	0.021893	45.676	1286.0	1570.7	8.2620	2.5661	3.0855	585.13	0.92009	1.8214e-05	0.078413	
550.20	0.10000	0.021858	45.750	1288.3	1573.4	8.2670	2.5694	3.0888	585.54	0.91539	1.8235e-05	0.078595	
551.09	0.10000	0.021822	45.824	1290.5	1576.2	8.2720	2.5727	3.0921	585.95	0.91070	1.8257e-05	0.078776	
551.98	0.10000	0.021787	45.899	1292.8	1578.9	8.2770	2.5761	3.0954	586.36	0.90605	1.8279e-05	0.078958	
552.87	0.10000	0.021752	45.973	1295.1	1581.7	8.2820	2.5794	3.0988	586.77	0.90141	1.8301e-05	0.079140	
553.76	0.10000	0.021717	46.047	1297.4	1584.5	8.2870	2.5827	3.1021	587.18	0.89680	1.8323e-05	0.079322	
554.65	0.10000	0.021682	46.121	1299.7	1587.2	8.2920	2.5860	3.1054	587.59	0.89222	1.8344e-05	0.079504	
555.54	0.10000	0.021647	46.195	1302.0	1590.0	8.2970	2.5894	3.1087	588.00	0.88766	1.8366e-05	0.079686	
556.43	0.10000	0.021613	46.269	1304.4	1592.8	8.3020	2.5927	3.1120	588.40	0.88312	1.8388e-05	0.079869	
557.32	0.10000	0.021578	46.343	1306.7	1595.5	8.3069	2.5960	3.1154	588.81	0.87860	1.8410e-05	0.080051	
558.21	0.10000	0.021544	46.417	1309.0	1598.3	8.3119	2.5993	3.1187	589.22	0.87411	1.8431e-05	0.080234	
559.10	0.10000	0.021509	46.492	1311.3	1601.1	8.3169	2.6026	3.1220	589.63	0.86965	1.8453e-05	0.080416	
559.99	0.10000	0.021475	46.566	1313.6	1603.9	8.3219	2.6060	3.1253	590.04	0.86520	1.8475e-05	0.080599	
560.88	0.10000	0.021441	46.640	1315.9	1606.7	8.3268	2.6093	3.1286	590.44	0.86078	1.8496e-05	0.080782	
561.77	0.10000	0.021407	46.714	1318.3	1609.4	8.3318	2.6126	3.1319	590.85	0.85638	1.8518e-05	0.080965	
562.66	0.10000	0.021373	46.788	1320.6	1612.2	8.3367	2.6159	3.1352	591.26	0.85201	1.8540e-05	0.081148	
563.55	0.10000	0.021339	46.862	1322.9	1615.0	8.3417	2.6192	3.1386	591.66	0.84765	1.8561e-05	0.081331	
564.45	0.10000	0.021306	46.936	1325.3	1617.8	8.3467	2.6225	3.1419	592.07	0.84332	1.8583e-05	0.081515	
565.34	0.10000	0.021272	47.010	1327.6	1620.6	8.3516	2.6258	3.1452	592.47	0.83901	1.8604e-05	0.081698	
566.23	0.10000	0.021238	47.084	1329.9	1623.4	8.3566	2.6292	3.1485	592.88	0.83473	1.8626e-05	0.081882	
567.12	0.10000	0.021205	47.159	1332.3	1626.2	8.3615	2.6325	3.1518	593.28	0.83046	1.8647e-05	0.082065	
568.01	0.10000	0.021172	47.233	1334.6	1629.0	8.3665	2.6358	3.1551	593.69	0.82622	1.8669e-05	0.082249	
568.90	0.10000	0.021139	47.307	1337.0	1631.9	8.3714	2.6391	3.1584	594.09	0.82200	1.8690e-05	0.082433	
569.79	0.10000	0.021106	47.381	1339.3	1634.7	8.3764	2.6424	3.1617	594.50	0.81780	1.8712e-05	0.082617	
570.68	0.10000	0.021073	47.455	1341.7	1637.5	8.3813	2.6457	3.1650	594.90	0.81362	1.8733e-05	0.082801	
571.57	0.10000	0.021040	47.529	1344.0	1640.3	8.3862	2.6490	3.1683	595.30	0.80947	1.8755e-05	0.082985	
572.46	0.10000	0.021007	47.603	1346.4	1643.1	8.3912	2.6523	3.1716	595.71	0.80533	1.8776e-05	0.083170	
573.35	0.10000	0.020974	47.677	1348.8	1646.0	8.3961	2.6556	3.1749	596.11	0.80122	1.8798e-05	0.083354	
574.24	0.10000	0.020942	47.751	1351.1	1648.8	8.4010	2.6589	3.1782	596.51	0.79712	1.8819e-05	0.083539	
575.13	0.10000	0.020909	47.826	1353.5	1651.6	8.4060	2.6622	3.1815	596.92	0.79305	1.8840e-05	0.083723	
576.02	0.10000	0.020877	47.900	1355.9	1654.4	8.4109	2.6655	3.1848	597.32	0.78900	1.8862e-05	0.083908	
576.91	0.10000	0.020845	47.974	1358.2	1657.3	8.4158	2.6688	3.1881	597.72	0.78497	1.8883e-05	0.084093	
577.80	0.10000	0.020813	48.048	1360.6	1660.1	8.4207	2.6721	3.1914	598.12	0.78096	1.8904e-05	0.084278	
578.69	0.10000	0.020780	48.122	1363.0	1663.0	8.4256	2.6754	3.1947	598.52	0.77697	1.8926e-05	0.084463	
579.58	0.10000	0.020749	48.196	1365.4	1665.8	8.4306	2.6787	3.1980	598.92	0.77300	1.8947e-05	0.084648	
580.47	0.10000	0.020717	48.270	1367.8	1668.7	8.4355	2.6820	3.2012	599.32	0.76905	1.8968e-05	0.084834	
581.37	0.10000	0.020685	48.344	1370.2	1671.5	8.4404	2.6853	3.2045	599.72	0.76512	1.8990e-05	0.085019	
582.26	0.10000	0.020653	48.419	1372.6	1674.4	8.4453	2.6886	3.2078	600.12	0.76120	1.9011e-05	0.085204	
583.15	0.10000	0.020622	48.493	1375.0	1677.2	8.4502	2.6919	3.2111	600.52	0.75731	1.9032e-05	0.085390	
584.04	0.10000	0.020590	48.567	1377.4	1680.1	8.4551	2.6951	3.2144	600.92	0.75344	1.9053e-05	0.085576	
584.93	0.10000	0.020559	48.641	1379.8	1683.0	8.4600	2.6984	3.2177	601.32	0.74959	1.9075e-05	0.085761	
585.82	0.10000	0.020528	48.715	1382.2	1685.8	8.4649	2.7017	3.2210	601.72	0.74576	1.9096e-05	0.085947	
586.71	0.10000	0.020496	48.789	1384.6	1688.7	8.4698	2.7050	3.2242	602.12	0.74194	1.9117e-05	0.086133	
587.60	0.10000	0.020465	48.863	1387.0	1691.6	8.4747	2.7083	3.2275	602.52	0.73815	1.9138e-05	0.086319	
588.49	0.10000	0.020434	48.937	1389.4	1694.4	8.4796	2.7116	3.2308	602.92	0.73437	1.9159e-05	0.086506	
589.38	0.10000	0.020403	49.011	1391.8	1697.3	8.4845	2.7148	3.2341	603.31	0.73062	1.9180e-05	0.086692	
590.27	0.10000	0.020373	49.086	1394.2	1700.2	8.4893	2.7181	3.2373	603.71	0.72688	1.9202e-05	0.086878	
591.16	0.10000	0.020342	49.160	1396.7	1703.1	8.4942	2.7214	3.2406	604.11	0.72316	1.9223e-05	0.087065	
592.05	0.10000	0.020311	49.234	1399.1	1706.0	8.4991	2.7247	3.2439	604.51	0.71946	1.9244e-05	0.087251	
592.94	0.10000	0.020281	49.308	1401.5	1708.9	8.5040	2.7279	3.2472	604.90	0.71577	1.9265e-05	0.087438	
593.83	0.10000	0.020250	49.382	1403.9	1711.8	8.5089	2.7312	3.2504	605.30	0.71211	1.9286e-05	0.087625	
594.72	0.10000	0.020220	49.456	1406.4	1714.6	8.5137	2.7345	3.2537	605.70	0.70846	1.9307e-05	0.087812	
595.61	0.10000	0.020190	49.530	1408.8	1717.5	8.5186	2.7378	3.2570	606.09	0.70483	1.9328e-05	0.087999	
596.50	0.10000	0.020160	49.604	1411.2	1720.4	8.5235	2.7410	3.2602	606.49	0.70122	1.9349e-05	0.088186	
597.39	0.10000	0.020129	49.678	1413.7	1723.4	8.5283	2.7443	3.2635	606.88	0.69763	1.9370e-05	0.088373	
598.28	0.10000	0.020099	49.752	1416.1	1726.3	8.5332	2.7476	3.2668	607.28	0.69405	1.9391e-05	0.088560	
599.18	0.10000	0.020070	49.827	1418.6	1729.2	8.5381	2.7508	3.2700	607.67	0.69050	1.9412e-05	0.088747	
600.07	0.10000	0.020040	49.901	1421.0	1732.1	8.5429	2.7541	3.2733	608.07	0.68696	1.9433e-05	0.088935	
600.96	0.10000	0.020010	49.975	1423.5	1735.0	8.5478	2.7574	3.2765	608.46	0.68343	1.9454e-05	0.089122	
601.85	0.10000	0.019980	50.049	1425.9	1737.9	8.5526	2.7606	3.2798	608.86	0.67993	1.9475e-05	0.089310	
602.74	0.10000	0.019951	50.123	1428.4	1740.8	8.5575	2.7639	3.2831	609.25	0.67644	1.9496e-05	0.089498	
603.63	0.10000	0.019921	50.197	1430.9	1743.8	8.5623	2.7671	3.2863	609.64	0.67297	1.9516e-05	0.089686	
604.52	0.10000	0.019892	50.271	1433.3	1746.7	8.5672	2.7704	3.2896	610.04	0.66951	1.9537e-05	0.089873	
605.41	0.10000	0.019863	50.345	1435.8	1749.6	8.5720	2.7736	3.2928	610.43	0.66608	1.9558e-05	0.090061	
606.30	0.10000	0.019834	50.419	1438.3	1752.6	8.5769	2.7769	3.2961	610.82	0.66266	1.9579e-05	0.090250	
607.19	0.10000	0.019805	50.494	1440.8	1755.5	8.5817	2.7801	3.2993	611.21	0.65925	1.9600e-05	0.090438	
608.08	0.10000	0.019775	50.568	1443.2	1758.4	8.5866	2.7834	3.3026	611.61	0.65586	1.9621e-05	0.090626	
608.97	0.10000	0.019747	50.642	1445.7	1761.4	8.5914	2.7866	3.3058	612.00	0.65249	1.9642e-05	0.090814	
609.86	0.10000	0.019718	50.716	1448.2	1764.3	8.5962	2.7899	3.3090	612.39	0.64914	1.9662e-05	0.091003	
610.75	0.10000	0.019689	50.790	1450.7	1767.3	8.6010	2.7931	3.3123	612.78	0.64580	1.9683e-05	0.091191	
611.64	0.10000	0.019660	50.864	1453.2	1770.2	8.6059	2.7964	3.3155	613.17	0.64248	1.9704e-05	0.091380	
612.53	0.10000	0.019632	50.938	1455.7	1773.2	8.6107	2.7996	3.3188	613.56	0.63917	1.9725e-05	0.091569	
613.42	0.10000	0.019603	51.012	1458.2	1776.1	8.6155	2.8029	3.3220	613.95	0.63588	1.9745e-05	0.091757	
614.31	0.10000	0.019575	51.086	1460.7	1779.1	8.6203	2.8061	3.3252	614.34	0.63261	1.9766e-05	0.091946	
615.20	0.10000	0.019546	51.160	1463.2	1782.1	8.6252	2.8093	3.3285	614.73	0.62935	1.9787e-05	0.092135	
616.09	0.10000	0.019518	51.235	1465.7	1785.0	8.6300	2.8126	3.3317	615.12	0.62610	1.9807e-05	0.092324	
616.99	0.10000	0.019490	51.309	1468.2	1788.0	8.6348	2.8158	3.3349	615.51	0.62288	1.9828e-05	0.092514	
617.88	0.10000	0.019462	51.383	1470.7	1791.0	8.6396	2.8190	3.3382	615.90	0.61966	1.9849e-05	0.092703	
618.77	0.10000	0.019434	51.457	1473.2	1793.9	8.6444	2.8223	3.3414	616.29	0.61647	1.9869e-05	0.092892	
619.66	0.10000	0.019406	51.531	1475.7	1796.9	8.6492	2.8255	3.3446	616.68	0.61329	1.9890e-05	0.093081	
620.55	0.10000	0.019378	51.605	1478.2	1799.9	8.6540	2.8287	3.3478	617.07	0.61012	1.9911e-05	0.093271	
621.44	0.10000	0.019350	51.679	1480.7	1802.9	8.6588	2.8319	3.3511	617.46	0.60697	1.9931e-05	0.093461	
622.33	0.10000	0.019322	51.753	1483.3	1805.9	8.6636	2.8352	3.3543	617.85	0.60383	1.9952e-05	0.093650	
623.22	0.10000	0.019295	51.827	1485.8	1808.8	8.6684	2.8384	3.3575	618.23	0.60071	1.9972e-05	0.093840	
624.11	0.10000	0.019267	51.902	1488.3	1811.8	8.6732	2.8416	3.3607	618.62	0.59761	1.9993e-05	0.094030	
];
t=data(:,1);
h=data(:,6);
s=data(:,7);


