function [t,h,s]=MethaneIsobaric_200
data=[
96.037	20.000	28.489	0.035101	-65.098	-21.339	-0.64049	2.1820	3.2907	1621.3	-0.50056	0.00021655	0.22227	
96.928	20.000	28.424	0.035182	-62.268	-18.408	-0.61011	2.1773	3.2920	1614.5	-0.49938	0.00021110	0.22130	
97.818	20.000	28.358	0.035263	-59.437	-15.476	-0.58000	2.1726	3.2935	1607.8	-0.49817	0.00020587	0.22031	
98.709	20.000	28.293	0.035344	-56.605	-12.542	-0.55014	2.1680	3.2950	1601.0	-0.49692	0.00020085	0.21932	
99.599	20.000	28.227	0.035427	-53.772	-9.6073	-0.52054	2.1635	3.2965	1594.2	-0.49563	0.00019604	0.21832	
100.49	20.000	28.162	0.035509	-50.939	-6.6709	-0.49119	2.1591	3.2982	1587.4	-0.49431	0.00019142	0.21730	
101.38	20.000	28.096	0.035592	-48.105	-3.7331	-0.46209	2.1547	3.2999	1580.5	-0.49296	0.00018699	0.21628	
102.27	20.000	28.030	0.035676	-45.270	-0.79380	-0.43322	2.1504	3.3016	1573.7	-0.49158	0.00018272	0.21526	
103.16	20.000	27.964	0.035760	-42.434	2.1471	-0.40459	2.1461	3.3034	1566.8	-0.49016	0.00017861	0.21422	
104.05	20.000	27.898	0.035845	-39.597	5.0896	-0.37619	2.1419	3.3052	1560.0	-0.48872	0.00017466	0.21318	
104.94	20.000	27.832	0.035930	-36.759	8.0338	-0.34801	2.1377	3.3071	1553.1	-0.48724	0.00017086	0.21213	
105.83	20.000	27.765	0.036016	-33.920	10.980	-0.32006	2.1336	3.3090	1546.2	-0.48572	0.00016719	0.21108	
106.72	20.000	27.699	0.036102	-31.081	13.927	-0.29233	2.1295	3.3109	1539.3	-0.48418	0.00016365	0.21002	
107.61	20.000	27.632	0.036189	-28.240	16.876	-0.26481	2.1254	3.3129	1532.4	-0.48261	0.00016024	0.20896	
108.50	20.000	27.566	0.036277	-25.398	19.827	-0.23750	2.1214	3.3148	1525.4	-0.48100	0.00015695	0.20789	
109.39	20.000	27.499	0.036365	-22.555	22.780	-0.21040	2.1174	3.3169	1518.5	-0.47936	0.00015377	0.20682	
110.29	20.000	27.432	0.036454	-19.711	25.735	-0.18350	2.1134	3.3189	1511.6	-0.47768	0.00015070	0.20574	
111.18	20.000	27.365	0.036543	-16.866	28.691	-0.15680	2.1094	3.3210	1504.6	-0.47598	0.00014773	0.20466	
112.07	20.000	27.298	0.036633	-14.019	31.649	-0.13029	2.1055	3.3231	1497.7	-0.47424	0.00014485	0.20358	
112.96	20.000	27.231	0.036723	-11.172	34.610	-0.10398	2.1016	3.3252	1490.7	-0.47246	0.00014207	0.20250	
113.85	20.000	27.163	0.036814	-8.3235	37.572	-0.077863	2.0978	3.3274	1483.8	-0.47065	0.00013938	0.20141	
114.74	20.000	27.096	0.036906	-5.4739	40.536	-0.051930	2.0939	3.3295	1476.8	-0.46880	0.00013678	0.20032	
115.63	20.000	27.028	0.036999	-2.6232	43.502	-0.026180	2.0901	3.3317	1469.9	-0.46692	0.00013426	0.19922	
116.52	20.000	26.960	0.037092	0.22875	46.470	-0.00061019	2.0863	3.3340	1462.9	-0.46500	0.00013181	0.19813	
117.41	20.000	26.892	0.037185	3.0818	49.440	0.024782	2.0826	3.3362	1455.9	-0.46304	0.00012944	0.19703	
118.30	20.000	26.824	0.037280	5.9361	52.412	0.049999	2.0788	3.3385	1449.0	-0.46104	0.00012714	0.19594	
119.19	20.000	26.756	0.037375	8.7916	55.386	0.075045	2.0751	3.3409	1442.0	-0.45900	0.00012490	0.19484	
120.08	20.000	26.688	0.037471	11.648	58.362	0.099921	2.0714	3.3432	1435.0	-0.45693	0.00012273	0.19374	
120.97	20.000	26.619	0.037567	14.506	61.340	0.12463	2.0677	3.3456	1428.0	-0.45481	0.00012063	0.19264	
121.86	20.000	26.550	0.037664	17.365	64.320	0.14918	2.0641	3.3480	1421.1	-0.45264	0.00011858	0.19154	
122.75	20.000	26.481	0.037762	20.226	67.303	0.17356	2.0605	3.3505	1414.1	-0.45044	0.00011660	0.19044	
123.64	20.000	26.412	0.037861	23.088	70.288	0.19779	2.0569	3.3530	1407.1	-0.44819	0.00011466	0.18934	
124.53	20.000	26.343	0.037960	25.951	73.274	0.22186	2.0533	3.3555	1400.1	-0.44590	0.00011278	0.18824	
125.42	20.000	26.274	0.038061	28.815	76.264	0.24578	2.0497	3.3580	1393.2	-0.44356	0.00011095	0.18715	
126.31	20.000	26.204	0.038162	31.681	79.255	0.26955	2.0462	3.3606	1386.2	-0.44117	0.00010918	0.18605	
127.21	20.000	26.135	0.038263	34.548	82.249	0.29317	2.0427	3.3633	1379.2	-0.43874	0.00010744	0.18495	
128.10	20.000	26.065	0.038366	37.416	85.245	0.31664	2.0392	3.3660	1372.2	-0.43626	0.00010576	0.18385	
128.99	20.000	25.995	0.038469	40.286	88.244	0.33997	2.0357	3.3687	1365.3	-0.43372	0.00010411	0.18276	
129.88	20.000	25.925	0.038573	43.157	91.245	0.36315	2.0323	3.3714	1358.3	-0.43114	0.00010251	0.18167	
130.77	20.000	25.854	0.038678	46.030	94.249	0.38620	2.0289	3.3743	1351.3	-0.42850	0.00010095	0.18057	
131.66	20.000	25.784	0.038784	48.904	97.255	0.40911	2.0255	3.3771	1344.3	-0.42581	9.9428e-05	0.17948	
132.55	20.000	25.713	0.038891	51.779	100.26	0.43189	2.0222	3.3800	1337.4	-0.42307	9.7943e-05	0.17839	
133.44	20.000	25.642	0.038999	54.656	103.27	0.45453	2.0188	3.3830	1330.4	-0.42027	9.6495e-05	0.17731	
134.33	20.000	25.571	0.039107	57.535	106.29	0.47704	2.0155	3.3860	1323.4	-0.41741	9.5082e-05	0.17622	
135.22	20.000	25.499	0.039216	60.415	109.31	0.49942	2.0122	3.3890	1316.5	-0.41450	9.3702e-05	0.17514	
136.11	20.000	25.428	0.039327	63.297	112.32	0.52168	2.0090	3.3921	1309.5	-0.41153	9.2355e-05	0.17406	
137.00	20.000	25.356	0.039438	66.180	115.35	0.54381	2.0058	3.3953	1302.6	-0.40849	9.1040e-05	0.17298	
137.89	20.000	25.284	0.039550	69.066	118.37	0.56582	2.0025	3.3985	1295.6	-0.40540	8.9754e-05	0.17190	
138.78	20.000	25.212	0.039663	71.952	121.40	0.58771	1.9994	3.4018	1288.7	-0.40224	8.8499e-05	0.17083	
139.67	20.000	25.140	0.039778	74.841	124.43	0.60947	1.9962	3.4051	1281.7	-0.39901	8.7271e-05	0.16976	
140.56	20.000	25.067	0.039893	77.731	127.46	0.63113	1.9931	3.4085	1274.8	-0.39572	8.6071e-05	0.16869	
141.45	20.000	24.994	0.040009	80.623	130.50	0.65266	1.9900	3.4119	1267.8	-0.39236	8.4897e-05	0.16762	
142.34	20.000	24.921	0.040126	83.517	133.54	0.67409	1.9869	3.4155	1260.9	-0.38894	8.3749e-05	0.16656	
143.23	20.000	24.848	0.040244	86.413	136.58	0.69540	1.9839	3.4190	1253.9	-0.38544	8.2626e-05	0.16550	
144.12	20.000	24.775	0.040364	89.310	139.63	0.71660	1.9809	3.4227	1247.0	-0.38188	8.1527e-05	0.16444	
145.02	20.000	24.701	0.040484	92.210	142.68	0.73769	1.9779	3.4264	1240.1	-0.37824	8.0451e-05	0.16339	
145.91	20.000	24.627	0.040605	95.111	145.73	0.75868	1.9749	3.4301	1233.2	-0.37452	7.9398e-05	0.16234	
146.80	20.000	24.553	0.040728	98.015	148.79	0.77956	1.9720	3.4340	1226.3	-0.37073	7.8367e-05	0.16129	
147.69	20.000	24.479	0.040852	100.92	151.85	0.80035	1.9691	3.4379	1219.3	-0.36686	7.7356e-05	0.16025	
148.58	20.000	24.404	0.040977	103.83	154.91	0.82102	1.9662	3.4419	1212.4	-0.36291	7.6366e-05	0.15921	
149.47	20.000	24.329	0.041103	106.74	157.98	0.84160	1.9634	3.4459	1205.5	-0.35888	7.5396e-05	0.15817	
150.36	20.000	24.254	0.041230	109.65	161.05	0.86209	1.9606	3.4500	1198.6	-0.35477	7.4446e-05	0.15713	
151.25	20.000	24.179	0.041359	112.56	164.12	0.88247	1.9578	3.4542	1191.7	-0.35057	7.3514e-05	0.15610	
152.14	20.000	24.103	0.041488	115.48	167.20	0.90276	1.9550	3.4585	1184.8	-0.34629	7.2600e-05	0.15508	
153.03	20.000	24.027	0.041619	118.40	170.28	0.92296	1.9523	3.4629	1178.0	-0.34192	7.1704e-05	0.15406	
153.92	20.000	23.951	0.041752	121.32	173.37	0.94306	1.9496	3.4673	1171.1	-0.33746	7.0825e-05	0.15304	
154.81	20.000	23.875	0.041885	124.24	176.46	0.96308	1.9469	3.4718	1164.2	-0.33291	6.9962e-05	0.15202	
155.70	20.000	23.798	0.042020	127.17	179.55	0.98301	1.9443	3.4764	1157.4	-0.32827	6.9116e-05	0.15101	
156.59	20.000	23.721	0.042156	130.09	182.65	1.0028	1.9417	3.4811	1150.5	-0.32353	6.8285e-05	0.15000	
157.48	20.000	23.644	0.042294	133.03	185.75	1.0226	1.9391	3.4858	1143.6	-0.31869	6.7469e-05	0.14900	
158.37	20.000	23.566	0.042433	135.96	188.86	1.0423	1.9365	3.4907	1136.8	-0.31376	6.6669e-05	0.14800	
159.26	20.000	23.489	0.042574	138.89	191.97	1.0619	1.9340	3.4956	1130.0	-0.30872	6.5882e-05	0.14700	
160.15	20.000	23.411	0.042716	141.83	195.08	1.0814	1.9315	3.5006	1123.1	-0.30358	6.5110e-05	0.14601	
161.04	20.000	23.332	0.042859	144.77	198.20	1.1008	1.9291	3.5057	1116.3	-0.29833	6.4351e-05	0.14503	
161.93	20.000	23.254	0.043004	147.72	201.33	1.1201	1.9267	3.5109	1109.5	-0.29298	6.3605e-05	0.14404	
162.83	20.000	23.175	0.043151	150.66	204.46	1.1394	1.9243	3.5162	1102.7	-0.28752	6.2873e-05	0.14307	
163.72	20.000	23.095	0.043299	153.61	207.59	1.1586	1.9219	3.5216	1095.9	-0.28194	6.2153e-05	0.14209	
164.61	20.000	23.016	0.043448	156.56	210.73	1.1777	1.9196	3.5271	1089.1	-0.27626	6.1445e-05	0.14112	
165.50	20.000	22.936	0.043600	159.52	213.87	1.1968	1.9173	3.5326	1082.3	-0.27045	6.0748e-05	0.14016	
166.39	20.000	22.856	0.043753	162.48	217.02	1.2157	1.9150	3.5383	1075.6	-0.26453	6.0064e-05	0.13919	
167.28	20.000	22.775	0.043907	165.44	220.17	1.2346	1.9127	3.5440	1068.8	-0.25849	5.9391e-05	0.13824	
168.17	20.000	22.694	0.044064	168.40	223.33	1.2535	1.9105	3.5499	1062.1	-0.25232	5.8728e-05	0.13729	
169.06	20.000	22.613	0.044222	171.37	226.50	1.2722	1.9084	3.5558	1055.3	-0.24603	5.8077e-05	0.13634	
169.95	20.000	22.532	0.044382	174.34	229.67	1.2909	1.9062	3.5619	1048.6	-0.23961	5.7436e-05	0.13540	
170.84	20.000	22.450	0.044543	177.31	232.84	1.3096	1.9041	3.5680	1041.9	-0.23306	5.6804e-05	0.13446	
171.73	20.000	22.368	0.044707	180.29	236.02	1.3281	1.9020	3.5743	1035.2	-0.22638	5.6183e-05	0.13352	
172.62	20.000	22.285	0.044873	183.27	239.21	1.3466	1.9000	3.5806	1028.5	-0.21956	5.5572e-05	0.13259	
173.51	20.000	22.203	0.045040	186.25	242.40	1.3651	1.8980	3.5871	1021.8	-0.21260	5.4970e-05	0.13167	
174.40	20.000	22.119	0.045209	189.23	245.59	1.3834	1.8960	3.5936	1015.1	-0.20550	5.4377e-05	0.13075	
175.29	20.000	22.036	0.045381	192.22	248.80	1.4018	1.8940	3.6002	1008.5	-0.19826	5.3793e-05	0.12984	
176.18	20.000	21.952	0.045554	195.22	252.01	1.4200	1.8921	3.6070	1001.8	-0.19088	5.3218e-05	0.12893	
177.07	20.000	21.868	0.045729	198.21	255.22	1.4382	1.8902	3.6139	995.21	-0.18334	5.2651e-05	0.12802	
177.96	20.000	21.783	0.045907	201.21	258.44	1.4564	1.8884	3.6208	988.60	-0.17566	5.2093e-05	0.12713	
178.85	20.000	21.698	0.046087	204.22	261.67	1.4745	1.8866	3.6279	982.01	-0.16782	5.1543e-05	0.12623	
179.75	20.000	21.613	0.046269	207.22	264.90	1.4925	1.8848	3.6350	975.43	-0.15982	5.1001e-05	0.12534	
180.64	20.000	21.527	0.046453	210.23	268.14	1.5105	1.8830	3.6423	968.86	-0.15167	5.0467e-05	0.12446	
181.53	20.000	21.441	0.046639	213.25	271.39	1.5284	1.8813	3.6497	962.32	-0.14335	4.9940e-05	0.12358	
182.42	20.000	21.355	0.046828	216.27	274.64	1.5463	1.8796	3.6572	955.79	-0.13486	4.9421e-05	0.12271	
183.31	20.000	21.268	0.047019	219.29	277.91	1.5641	1.8780	3.6647	949.28	-0.12621	4.8909e-05	0.12185	
184.20	20.000	21.181	0.047213	222.31	281.17	1.5819	1.8763	3.6724	942.79	-0.11739	4.8404e-05	0.12099	
185.09	20.000	21.093	0.047409	225.34	284.45	1.5996	1.8747	3.6802	936.32	-0.10839	4.7906e-05	0.12014	
185.98	20.000	21.005	0.047608	228.38	287.73	1.6173	1.8732	3.6881	929.87	-0.099223	4.7415e-05	0.11929	
186.87	20.000	20.917	0.047809	231.41	291.01	1.6349	1.8717	3.6961	923.44	-0.089872	4.6931e-05	0.11845	
187.76	20.000	20.828	0.048012	234.45	294.31	1.6525	1.8702	3.7041	917.03	-0.080339	4.6453e-05	0.11762	
188.65	20.000	20.739	0.048219	237.50	297.61	1.6701	1.8687	3.7123	910.64	-0.070621	4.5982e-05	0.11680	
189.54	20.000	20.649	0.048428	240.55	300.92	1.6876	1.8673	3.7206	904.28	-0.060716	4.5517e-05	0.11599	
190.43	20.000	20.559	0.048640	243.60	304.24	1.7050	1.8659	3.7290	897.94	-0.050621	4.5058e-05	0.11521	
191.32	20.000	20.469	0.048855	246.66	307.56	1.7225	1.8645	3.7374	891.63	-0.040333	4.4605e-05	0.11437	
192.21	20.000	20.378	0.049072	249.72	310.89	1.7398	1.8632	3.7460	885.34	-0.029849	4.4158e-05	0.11354	
193.10	20.000	20.287	0.049293	252.78	314.23	1.7572	1.8619	3.7546	879.08	-0.019167	4.3716e-05	0.11271	
193.99	20.000	20.195	0.049516	255.85	317.58	1.7745	1.8607	3.7633	872.85	-0.0082848	4.3281e-05	0.11190	
194.88	20.000	20.103	0.049743	258.92	320.94	1.7917	1.8594	3.7721	866.64	0.0028008	4.2851e-05	0.11109	
195.77	20.000	20.011	0.049972	262.00	324.30	1.8089	1.8582	3.7810	860.46	0.014092	4.2427e-05	0.11029	
196.66	20.000	19.918	0.050205	265.08	327.67	1.8261	1.8571	3.7900	854.32	0.025591	4.2008e-05	0.10949	
197.56	20.000	19.825	0.050441	268.17	331.05	1.8433	1.8559	3.7990	848.20	0.037300	4.1594e-05	0.10871	
198.45	20.000	19.731	0.050680	271.26	334.44	1.8604	1.8548	3.8081	842.12	0.049222	4.1185e-05	0.10792	
199.34	20.000	19.637	0.050923	274.35	337.83	1.8774	1.8538	3.8173	836.06	0.061358	4.0782e-05	0.10715	
200.23	20.000	19.543	0.051169	277.45	341.24	1.8945	1.8527	3.8265	830.05	0.073710	4.0384e-05	0.10638	
201.12	20.000	19.448	0.051418	280.55	344.65	1.9115	1.8517	3.8358	824.06	0.086280	3.9990e-05	0.10561	
202.01	20.000	19.353	0.051671	283.65	348.07	1.9284	1.8508	3.8451	818.12	0.099070	3.9602e-05	0.10486	
202.90	20.000	19.257	0.051928	286.76	351.50	1.9454	1.8498	3.8545	812.21	0.11208	3.9218e-05	0.10410	
203.79	20.000	19.161	0.052188	289.87	354.93	1.9623	1.8489	3.8639	806.34	0.12531	3.8840e-05	0.10336	
204.68	20.000	19.065	0.052452	292.99	358.38	1.9791	1.8480	3.8733	800.50	0.13877	3.8465e-05	0.10262	
205.57	20.000	18.968	0.052720	296.11	361.83	1.9960	1.8472	3.8828	794.71	0.15245	3.8096e-05	0.10188	
206.46	20.000	18.871	0.052991	299.23	365.29	2.0128	1.8464	3.8922	788.96	0.16636	3.7731e-05	0.10116	
207.35	20.000	18.774	0.053266	302.36	368.76	2.0296	1.8456	3.9017	783.25	0.18049	3.7370e-05	0.10044	
208.24	20.000	18.676	0.053546	305.49	372.24	2.0463	1.8448	3.9112	777.59	0.19485	3.7014e-05	0.099723	
209.13	20.000	18.577	0.053829	308.62	375.73	2.0630	1.8441	3.9206	771.97	0.20944	3.6663e-05	0.099015	
210.02	20.000	18.479	0.054116	311.76	379.22	2.0797	1.8434	3.9301	766.39	0.22425	3.6315e-05	0.098313	
210.91	20.000	18.380	0.054408	314.90	382.73	2.0963	1.8427	3.9395	760.86	0.23929	3.5972e-05	0.097618	
211.80	20.000	18.280	0.054703	318.04	386.24	2.1130	1.8420	3.9489	755.39	0.25455	3.5634e-05	0.096930	
212.69	20.000	18.181	0.055003	321.19	389.76	2.1295	1.8414	3.9582	749.96	0.27004	3.5299e-05	0.096248	
213.58	20.000	18.081	0.055308	324.34	393.29	2.1461	1.8408	3.9675	744.58	0.28575	3.4969e-05	0.095573	
214.47	20.000	17.980	0.055616	327.49	396.83	2.1626	1.8403	3.9767	739.25	0.30168	3.4643e-05	0.094904	
215.37	20.000	17.880	0.055929	330.65	400.37	2.1791	1.8397	3.9858	733.97	0.31783	3.4321e-05	0.094243	
216.26	20.000	17.779	0.056247	333.81	403.93	2.1956	1.8392	3.9948	728.75	0.33419	3.4003e-05	0.093588	
217.15	20.000	17.678	0.056569	336.97	407.49	2.2120	1.8387	4.0038	723.59	0.35077	3.3689e-05	0.092941	
218.04	20.000	17.576	0.056896	340.13	411.06	2.2284	1.8383	4.0126	718.48	0.36756	3.3379e-05	0.092300	
218.93	20.000	17.474	0.057227	343.29	414.63	2.2448	1.8378	4.0212	713.43	0.38455	3.3073e-05	0.091666	
219.82	20.000	17.372	0.057563	346.46	418.22	2.2611	1.8374	4.0298	708.43	0.40175	3.2771e-05	0.091039	
220.71	20.000	17.270	0.057904	349.62	421.81	2.2774	1.8370	4.0381	703.50	0.41914	3.2472e-05	0.090420	
221.60	20.000	17.168	0.058249	352.79	425.41	2.2937	1.8366	4.0463	698.63	0.43672	3.2178e-05	0.089808	
222.49	20.000	17.065	0.058600	355.96	429.02	2.3100	1.8363	4.0543	693.82	0.45449	3.1888e-05	0.089202	
223.38	20.000	16.962	0.058955	359.13	432.63	2.3262	1.8360	4.0621	689.07	0.47244	3.1602e-05	0.088605	
224.27	20.000	16.859	0.059315	362.31	436.25	2.3424	1.8356	4.0697	684.38	0.49057	3.1319e-05	0.088014	
225.16	20.000	16.756	0.059680	365.48	439.88	2.3585	1.8354	4.0770	679.77	0.50885	3.1040e-05	0.087431	
226.05	20.000	16.653	0.060051	368.65	443.51	2.3746	1.8351	4.0841	675.21	0.52730	3.0766e-05	0.086855	
226.94	20.000	16.549	0.060426	371.82	447.15	2.3907	1.8348	4.0909	670.73	0.54589	3.0494e-05	0.086286	
227.83	20.000	16.446	0.060806	374.99	450.80	2.4067	1.8346	4.0974	666.31	0.56463	3.0227e-05	0.085725	
228.72	20.000	16.342	0.061191	378.17	454.45	2.4227	1.8344	4.1036	661.97	0.58349	2.9964e-05	0.085172	
229.61	20.000	16.239	0.061582	381.34	458.11	2.4387	1.8342	4.1095	657.69	0.60247	2.9704e-05	0.084626	
230.50	20.000	16.135	0.061977	384.50	461.77	2.4546	1.8340	4.1150	653.48	0.62156	2.9448e-05	0.084087	
231.39	20.000	16.031	0.062378	387.67	465.44	2.4705	1.8339	4.1202	649.35	0.64074	2.9196e-05	0.083556	
232.29	20.000	15.928	0.062783	390.84	469.11	2.4863	1.8337	4.1251	645.29	0.66001	2.8948e-05	0.083033	
233.18	20.000	15.824	0.063194	394.00	472.78	2.5021	1.8336	4.1295	641.30	0.67935	2.8703e-05	0.082517	
234.07	20.000	15.721	0.063610	397.16	476.46	2.5178	1.8335	4.1336	637.39	0.69875	2.8462e-05	0.082009	
234.96	20.000	15.618	0.064030	400.32	480.14	2.5335	1.8334	4.1372	633.55	0.71820	2.8225e-05	0.081508	
235.85	20.000	15.514	0.064456	403.48	483.83	2.5492	1.8333	4.1405	629.79	0.73767	2.7991e-05	0.081014	
236.74	20.000	15.411	0.064887	406.63	487.52	2.5648	1.8332	4.1433	626.11	0.75716	2.7762e-05	0.080528	
237.63	20.000	15.309	0.065323	409.77	491.21	2.5804	1.8332	4.1456	622.50	0.77666	2.7536e-05	0.080050	
238.52	20.000	15.206	0.065764	412.92	494.90	2.5959	1.8331	4.1475	618.97	0.79615	2.7313e-05	0.079579	
239.41	20.000	15.104	0.066210	416.06	498.60	2.6113	1.8331	4.1489	615.52	0.81560	2.7095e-05	0.079116	
240.30	20.000	15.001	0.066660	419.19	502.29	2.6267	1.8331	4.1499	612.15	0.83502	2.6880e-05	0.078660	
241.19	20.000	14.900	0.067116	422.32	505.99	2.6421	1.8331	4.1504	608.85	0.85439	2.6668e-05	0.078211	
242.08	20.000	14.798	0.067576	425.44	509.68	2.6574	1.8331	4.1504	605.63	0.87368	2.6461e-05	0.077770	
242.97	20.000	14.697	0.068041	428.56	513.38	2.6726	1.8331	4.1499	602.49	0.89289	2.6257e-05	0.077336	
243.86	20.000	14.596	0.068510	431.66	517.07	2.6878	1.8332	4.1490	599.43	0.91200	2.6056e-05	0.076910	
244.75	20.000	14.496	0.068985	434.77	520.77	2.7029	1.8332	4.1475	596.45	0.93100	2.5860e-05	0.076490	
245.64	20.000	14.396	0.069463	437.86	524.46	2.7180	1.8332	4.1456	593.55	0.94987	2.5666e-05	0.076078	
246.53	20.000	14.297	0.069946	440.95	528.15	2.7330	1.8333	4.1432	590.72	0.96861	2.5477e-05	0.075673	
247.42	20.000	14.198	0.070434	444.03	531.84	2.7479	1.8334	4.1403	587.97	0.98719	2.5291e-05	0.075274	
248.31	20.000	14.099	0.070925	447.11	535.53	2.7628	1.8335	4.1369	585.29	1.0056	2.5108e-05	0.074883	
249.20	20.000	14.002	0.071421	450.17	539.21	2.7776	1.8335	4.1331	582.70	1.0238	2.4929e-05	0.074499	
250.10	20.000	13.904	0.071921	453.23	542.89	2.7923	1.8336	4.1288	580.17	1.0419	2.4753e-05	0.074122	
250.99	20.000	13.807	0.072424	456.27	546.56	2.8070	1.8337	4.1241	577.73	1.0597	2.4581e-05	0.073751	
251.88	20.000	13.711	0.072932	459.31	550.23	2.8216	1.8339	4.1190	575.35	1.0774	2.4413e-05	0.073387	
252.77	20.000	13.616	0.073444	462.34	553.90	2.8361	1.8340	4.1134	573.05	1.0948	2.4247e-05	0.073030	
253.66	20.000	13.521	0.073959	465.36	557.56	2.8506	1.8341	4.1074	570.82	1.1120	2.4085e-05	0.072679	
254.55	20.000	13.427	0.074477	468.36	561.21	2.8650	1.8343	4.1009	568.66	1.1289	2.3927e-05	0.072335	
255.44	20.000	13.333	0.074999	471.36	564.86	2.8793	1.8344	4.0941	566.57	1.1456	2.3771e-05	0.071997	
256.33	20.000	13.241	0.075525	474.35	568.50	2.8935	1.8346	4.0870	564.55	1.1621	2.3619e-05	0.071666	
257.22	20.000	13.149	0.076054	477.33	572.14	2.9077	1.8347	4.0794	562.60	1.1783	2.3470e-05	0.071340	
258.11	20.000	13.057	0.076585	480.29	575.77	2.9217	1.8349	4.0715	560.71	1.1942	2.3324e-05	0.071021	
259.00	20.000	12.967	0.077120	483.25	579.39	2.9358	1.8351	4.0633	558.89	1.2098	2.3182e-05	0.070708	
259.89	20.000	12.877	0.077658	486.19	583.01	2.9497	1.8353	4.0547	557.13	1.2251	2.3042e-05	0.070401	
260.78	20.000	12.788	0.078198	489.13	586.61	2.9635	1.8355	4.0458	555.44	1.2402	2.2906e-05	0.070100	
261.67	20.000	12.700	0.078742	492.05	590.21	2.9773	1.8357	4.0367	553.81	1.2549	2.2772e-05	0.069805	
262.56	20.000	12.612	0.079288	494.96	593.80	2.9910	1.8359	4.0272	552.23	1.2694	2.2642e-05	0.069516	
263.45	20.000	12.526	0.079836	497.86	597.38	3.0046	1.8361	4.0175	550.72	1.2835	2.2514e-05	0.069232	
264.34	20.000	12.440	0.080386	500.74	600.96	3.0182	1.8364	4.0076	549.26	1.2973	2.2390e-05	0.068954	
265.23	20.000	12.355	0.080939	503.62	604.52	3.0316	1.8366	3.9974	547.86	1.3108	2.2268e-05	0.068682	
266.12	20.000	12.271	0.081494	506.48	608.08	3.0450	1.8369	3.9870	546.51	1.3240	2.2149e-05	0.068415	
267.02	20.000	12.187	0.082051	509.33	611.62	3.0583	1.8371	3.9764	545.22	1.3369	2.2033e-05	0.068153	
267.91	20.000	12.105	0.082610	512.17	615.16	3.0715	1.8374	3.9656	543.98	1.3494	2.1919e-05	0.067897	
268.80	20.000	12.023	0.083171	515.00	618.69	3.0847	1.8377	3.9546	542.79	1.3616	2.1808e-05	0.067646	
269.69	20.000	11.943	0.083734	517.81	622.20	3.0977	1.8380	3.9435	541.66	1.3735	2.1700e-05	0.067401	
270.58	20.000	11.863	0.084298	520.62	625.71	3.1107	1.8383	3.9322	540.57	1.3851	2.1594e-05	0.067160	
271.47	20.000	11.784	0.084864	523.41	629.21	3.1236	1.8386	3.9207	539.52	1.3963	2.1491e-05	0.066925	
272.36	20.000	11.705	0.085431	526.19	632.69	3.1364	1.8390	3.9092	538.53	1.4071	2.1390e-05	0.066694	
273.25	20.000	11.628	0.086000	528.95	636.17	3.1492	1.8393	3.8975	537.58	1.4177	2.1292e-05	0.066469	
274.14	20.000	11.551	0.086569	531.71	639.63	3.1619	1.8397	3.8858	536.67	1.4279	2.1196e-05	0.066249	
275.03	20.000	11.476	0.087140	534.45	643.09	3.1744	1.8400	3.8740	535.81	1.4377	2.1102e-05	0.066033	
275.92	20.000	11.401	0.087712	537.18	646.53	3.1869	1.8404	3.8621	534.98	1.4473	2.1010e-05	0.065822	
276.81	20.000	11.327	0.088285	539.90	649.97	3.1994	1.8408	3.8501	534.20	1.4565	2.0921e-05	0.065616	
277.70	20.000	11.254	0.088859	542.61	653.39	3.2117	1.8413	3.8381	533.46	1.4653	2.0834e-05	0.065415	
278.59	20.000	11.181	0.089434	545.31	656.80	3.2240	1.8417	3.8260	532.75	1.4739	2.0750e-05	0.065218	
279.48	20.000	11.110	0.090009	547.99	660.20	3.2362	1.8421	3.8140	532.09	1.4821	2.0667e-05	0.065026	
280.37	20.000	11.039	0.090585	550.67	663.59	3.2483	1.8426	3.8019	531.46	1.4900	2.0586e-05	0.064838	
281.26	20.000	10.970	0.091162	553.33	666.98	3.2603	1.8431	3.7898	530.86	1.4975	2.0508e-05	0.064655	
282.15	20.000	10.900	0.091739	555.98	670.34	3.2723	1.8436	3.7777	530.30	1.5048	2.0431e-05	0.064476	
283.04	20.000	10.832	0.092317	558.62	673.70	3.2842	1.8441	3.7656	529.77	1.5117	2.0356e-05	0.064302	
283.93	20.000	10.765	0.092894	561.24	677.05	3.2960	1.8447	3.7535	529.27	1.5183	2.0283e-05	0.064131	
284.83	20.000	10.698	0.093473	563.86	680.39	3.3077	1.8452	3.7415	528.81	1.5246	2.0212e-05	0.063966	
285.72	20.000	10.633	0.094051	566.46	683.71	3.3194	1.8458	3.7295	528.37	1.5305	2.0143e-05	0.063804	
286.61	20.000	10.567	0.094630	569.06	687.03	3.3310	1.8464	3.7176	527.96	1.5362	2.0076e-05	0.063646	
287.50	20.000	10.503	0.095209	571.64	690.34	3.3425	1.8470	3.7057	527.59	1.5416	2.0010e-05	0.063493	
288.39	20.000	10.440	0.095787	574.22	693.63	3.3539	1.8476	3.6939	527.24	1.5466	1.9946e-05	0.063343	
289.28	20.000	10.377	0.096366	576.78	696.91	3.3653	1.8483	3.6821	526.92	1.5514	1.9884e-05	0.063198	
290.17	20.000	10.315	0.096945	579.33	700.19	3.3766	1.8490	3.6704	526.62	1.5559	1.9823e-05	0.063057	
291.06	20.000	10.254	0.097523	581.87	703.45	3.3878	1.8497	3.6588	526.35	1.5601	1.9764e-05	0.062919	
291.95	20.000	10.193	0.098102	584.40	706.71	3.3990	1.8504	3.6473	526.10	1.5641	1.9706e-05	0.062785	
292.84	20.000	10.134	0.098680	586.93	709.95	3.4101	1.8511	3.6359	525.88	1.5677	1.9650e-05	0.062656	
293.73	20.000	10.075	0.099258	589.44	713.18	3.4211	1.8519	3.6246	525.68	1.5711	1.9596e-05	0.062530	
294.62	20.000	10.016	0.099836	591.94	716.40	3.4320	1.8527	3.6133	525.50	1.5742	1.9542e-05	0.062407	
295.51	20.000	9.9588	0.10041	594.43	719.62	3.4429	1.8535	3.6022	525.34	1.5771	1.9491e-05	0.062288	
296.40	20.000	9.9019	0.10099	596.92	722.82	3.4538	1.8543	3.5912	525.21	1.5797	1.9440e-05	0.062173	
297.29	20.000	9.8457	0.10157	599.39	726.01	3.4645	1.8551	3.5803	525.09	1.5821	1.9391e-05	0.062062	
298.18	20.000	9.7902	0.10214	601.86	729.20	3.4752	1.8560	3.5695	525.00	1.5842	1.9344e-05	0.061954	
299.07	20.000	9.7353	0.10272	604.31	732.37	3.4858	1.8569	3.5588	524.92	1.5861	1.9297e-05	0.061849	
299.96	20.000	9.6811	0.10329	606.76	735.53	3.4964	1.8578	3.5483	524.86	1.5878	1.9252e-05	0.061748	
300.85	20.000	9.6275	0.10387	609.20	738.69	3.5069	1.8588	3.5378	524.82	1.5892	1.9208e-05	0.061651	
301.74	20.000	9.5746	0.10444	611.63	741.83	3.5173	1.8597	3.5275	524.80	1.5904	1.9166e-05	0.061556	
302.64	20.000	9.5223	0.10502	614.05	744.97	3.5277	1.8607	3.5174	524.79	1.5914	1.9124e-05	0.061465	
303.53	20.000	9.4706	0.10559	616.46	748.10	3.5380	1.8617	3.5073	524.80	1.5921	1.9084e-05	0.061377	
304.42	20.000	9.4196	0.10616	618.87	751.22	3.5483	1.8627	3.4974	524.82	1.5927	1.9044e-05	0.061293	
305.31	20.000	9.3691	0.10673	621.27	754.33	3.5585	1.8638	3.4876	524.86	1.5931	1.9006e-05	0.061211	
306.20	20.000	9.3193	0.10730	623.66	757.43	3.5686	1.8648	3.4780	524.92	1.5932	1.8969e-05	0.061133	
307.09	20.000	9.2700	0.10787	626.04	760.52	3.5787	1.8659	3.4685	524.99	1.5932	1.8933e-05	0.061058	
307.98	20.000	9.2213	0.10844	628.41	763.61	3.5888	1.8671	3.4591	525.07	1.5930	1.8898e-05	0.060986	
308.87	20.000	9.1732	0.10901	630.78	766.68	3.5987	1.8682	3.4498	525.17	1.5926	1.8864e-05	0.060917	
309.76	20.000	9.1257	0.10958	633.14	769.75	3.6087	1.8694	3.4407	525.27	1.5920	1.8831e-05	0.060850	
310.65	20.000	9.0787	0.11015	635.49	772.81	3.6185	1.8705	3.4317	525.39	1.5913	1.8799e-05	0.060787	
311.54	20.000	9.0322	0.11071	637.84	775.86	3.6283	1.8718	3.4229	525.53	1.5904	1.8768e-05	0.060727	
312.43	20.000	8.9863	0.11128	640.18	778.91	3.6381	1.8730	3.4142	525.67	1.5893	1.8737e-05	0.060669	
313.32	20.000	8.9409	0.11185	642.51	781.94	3.6478	1.8742	3.4056	525.83	1.5881	1.8708e-05	0.060614	
314.21	20.000	8.8960	0.11241	644.84	784.97	3.6574	1.8755	3.3972	525.99	1.5867	1.8679e-05	0.060562	
315.10	20.000	8.8517	0.11297	647.16	788.00	3.6671	1.8768	3.3889	526.17	1.5851	1.8652e-05	0.060513	
315.99	20.000	8.8078	0.11354	649.47	791.01	3.6766	1.8781	3.3808	526.36	1.5834	1.8625e-05	0.060466	
316.88	20.000	8.7645	0.11410	651.78	794.02	3.6861	1.8795	3.3727	526.56	1.5816	1.8599e-05	0.060422	
317.77	20.000	8.7216	0.11466	654.08	797.02	3.6956	1.8808	3.3648	526.76	1.5796	1.8574e-05	0.060381	
318.66	20.000	8.6792	0.11522	656.37	800.01	3.7050	1.8822	3.3571	526.98	1.5775	1.8549e-05	0.060342	
319.56	20.000	8.6373	0.11578	658.66	803.00	3.7143	1.8836	3.3495	527.20	1.5753	1.8526e-05	0.060306	
320.45	20.000	8.5959	0.11633	660.94	805.97	3.7236	1.8850	3.3420	527.44	1.5729	1.8503e-05	0.060272	
321.34	20.000	8.5549	0.11689	663.22	808.95	3.7329	1.8865	3.3346	527.68	1.5704	1.8481e-05	0.060240	
322.23	20.000	8.5144	0.11745	665.50	811.91	3.7421	1.8880	3.3274	527.93	1.5678	1.8459e-05	0.060211	
323.12	20.000	8.4743	0.11800	667.76	814.87	3.7513	1.8895	3.3203	528.18	1.5651	1.8438e-05	0.060185	
324.01	20.000	8.4347	0.11856	670.03	817.83	3.7604	1.8910	3.3133	528.45	1.5623	1.8418e-05	0.060161	
324.90	20.000	8.3955	0.11911	672.28	820.77	3.7695	1.8925	3.3064	528.72	1.5594	1.8399e-05	0.060139	
325.79	20.000	8.3567	0.11966	674.53	823.72	3.7785	1.8941	3.2997	529.00	1.5563	1.8380e-05	0.060119	
326.68	20.000	8.3184	0.12022	676.78	826.65	3.7875	1.8956	3.2931	529.29	1.5532	1.8362e-05	0.060102	
327.57	20.000	8.2804	0.12077	679.03	829.58	3.7965	1.8972	3.2866	529.58	1.5499	1.8344e-05	0.060086	
328.46	20.000	8.2429	0.12132	681.26	832.51	3.8054	1.8988	3.2803	529.88	1.5466	1.8327e-05	0.060073	
329.35	20.000	8.2057	0.12187	683.50	835.42	3.8143	1.9005	3.2740	530.18	1.5432	1.8311e-05	0.060062	
330.24	20.000	8.1690	0.12241	685.73	838.34	3.8231	1.9021	3.2679	530.49	1.5397	1.8295e-05	0.060054	
331.13	20.000	8.1326	0.12296	687.95	841.24	3.8319	1.9038	3.2619	530.81	1.5361	1.8280e-05	0.060047	
332.02	20.000	8.0966	0.12351	690.17	844.15	3.8407	1.9055	3.2561	531.13	1.5324	1.8265e-05	0.060042	
332.91	20.000	8.0610	0.12405	692.39	847.04	3.8494	1.9072	3.2503	531.46	1.5286	1.8251e-05	0.060040	
333.80	20.000	8.0258	0.12460	694.60	849.93	3.8580	1.9089	3.2446	531.79	1.5248	1.8238e-05	0.060039	
334.69	20.000	7.9909	0.12514	696.81	852.82	3.8667	1.9107	3.2391	532.13	1.5209	1.8225e-05	0.060041	
335.58	20.000	7.9564	0.12568	699.02	855.70	3.8753	1.9124	3.2337	532.47	1.5169	1.8212e-05	0.060044	
336.47	20.000	7.9223	0.12623	701.22	858.58	3.8838	1.9142	3.2283	532.82	1.5128	1.8200e-05	0.060049	
337.37	20.000	7.8885	0.12677	703.42	861.45	3.8924	1.9160	3.2231	533.17	1.5087	1.8189e-05	0.060056	
338.26	20.000	7.8550	0.12731	705.61	864.32	3.9009	1.9179	3.2180	533.53	1.5045	1.8177e-05	0.060065	
339.15	20.000	7.8219	0.12785	707.80	867.18	3.9093	1.9197	3.2130	533.89	1.5003	1.8167e-05	0.060076	
340.04	20.000	7.7891	0.12839	709.99	870.04	3.9177	1.9216	3.2081	534.25	1.4959	1.8157e-05	0.060089	
340.93	20.000	7.7566	0.12892	712.18	872.90	3.9261	1.9234	3.2034	534.62	1.4916	1.8147e-05	0.060103	
341.82	20.000	7.7245	0.12946	714.36	875.75	3.9345	1.9253	3.1987	534.99	1.4872	1.8138e-05	0.060119	
342.71	20.000	7.6926	0.12999	716.54	878.60	3.9428	1.9272	3.1941	535.37	1.4827	1.8129e-05	0.060137	
343.60	20.000	7.6611	0.13053	718.71	881.44	3.9511	1.9292	3.1896	535.74	1.4782	1.8121e-05	0.060157	
344.49	20.000	7.6299	0.13106	720.88	884.28	3.9593	1.9311	3.1852	536.13	1.4736	1.8113e-05	0.060178	
345.38	20.000	7.5990	0.13160	723.05	887.11	3.9675	1.9331	3.1809	536.51	1.4689	1.8105e-05	0.060201	
346.27	20.000	7.5684	0.13213	725.22	889.94	3.9757	1.9351	3.1767	536.90	1.4643	1.8098e-05	0.060226	
347.16	20.000	7.5381	0.13266	727.39	892.77	3.9839	1.9371	3.1726	537.30	1.4596	1.8092e-05	0.060252	
348.05	20.000	7.5081	0.13319	729.55	895.59	3.9920	1.9391	3.1686	537.69	1.4548	1.8085e-05	0.060280	
348.94	20.000	7.4783	0.13372	731.71	898.41	4.0001	1.9411	3.1647	538.09	1.4500	1.8079e-05	0.060309	
349.83	20.000	7.4489	0.13425	733.87	901.23	4.0082	1.9431	3.1609	538.49	1.4452	1.8074e-05	0.060340	
350.72	20.000	7.4197	0.13478	736.02	904.04	4.0162	1.9452	3.1571	538.89	1.4403	1.8069e-05	0.060372	
351.61	20.000	7.3908	0.13530	738.17	906.85	4.0242	1.9473	3.1535	539.30	1.4354	1.8064e-05	0.060406	
352.50	20.000	7.3622	0.13583	740.32	909.66	4.0322	1.9494	3.1499	539.71	1.4305	1.8059e-05	0.060442	
353.39	20.000	7.3338	0.13635	742.47	912.46	4.0401	1.9515	3.1464	540.12	1.4255	1.8055e-05	0.060479	
354.29	20.000	7.3057	0.13688	744.62	915.26	4.0480	1.9536	3.1430	540.53	1.4205	1.8051e-05	0.060517	
355.18	20.000	7.2779	0.13740	746.76	918.06	4.0559	1.9557	3.1397	540.95	1.4155	1.8048e-05	0.060557	
356.07	20.000	7.2503	0.13793	748.91	920.85	4.0638	1.9579	3.1365	541.37	1.4104	1.8045e-05	0.060598	
356.96	20.000	7.2229	0.13845	751.05	923.65	4.0716	1.9601	3.1333	541.79	1.4053	1.8042e-05	0.060641	
357.85	20.000	7.1958	0.13897	753.19	926.43	4.0794	1.9622	3.1303	542.21	1.4002	1.8039e-05	0.060685	
358.74	20.000	7.1690	0.13949	755.32	929.22	4.0872	1.9644	3.1273	542.63	1.3951	1.8037e-05	0.060730	
359.63	20.000	7.1424	0.14001	757.46	932.00	4.0949	1.9667	3.1244	543.06	1.3899	1.8035e-05	0.060777	
360.52	20.000	7.1160	0.14053	759.59	934.79	4.1026	1.9689	3.1215	543.49	1.3847	1.8033e-05	0.060825	
361.41	20.000	7.0899	0.14105	761.73	937.56	4.1103	1.9711	3.1188	543.92	1.3795	1.8032e-05	0.060874	
362.30	20.000	7.0640	0.14156	763.86	940.34	4.1180	1.9734	3.1161	544.35	1.3743	1.8031e-05	0.060925	
363.19	20.000	7.0383	0.14208	765.99	943.11	4.1257	1.9756	3.1134	544.78	1.3691	1.8030e-05	0.060977	
364.08	20.000	7.0129	0.14260	768.12	945.89	4.1333	1.9779	3.1109	545.22	1.3639	1.8030e-05	0.061030	
364.97	20.000	6.9876	0.14311	770.24	948.65	4.1409	1.9802	3.1084	545.65	1.3586	1.8029e-05	0.061084	
365.86	20.000	6.9626	0.14362	772.37	951.42	4.1484	1.9825	3.1060	546.09	1.3533	1.8029e-05	0.061140	
366.75	20.000	6.9378	0.14414	774.49	954.19	4.1560	1.9848	3.1037	546.53	1.3480	1.8030e-05	0.061196	
367.64	20.000	6.9132	0.14465	776.62	956.95	4.1635	1.9872	3.1014	546.97	1.3427	1.8030e-05	0.061254	
368.53	20.000	6.8889	0.14516	778.74	959.71	4.1710	1.9895	3.0992	547.41	1.3374	1.8031e-05	0.061313	
369.42	20.000	6.8647	0.14567	780.86	962.47	4.1785	1.9919	3.0971	547.85	1.3321	1.8032e-05	0.061374	
370.31	20.000	6.8407	0.14618	782.98	965.23	4.1860	1.9942	3.0950	548.29	1.3267	1.8033e-05	0.061435	
371.20	20.000	6.8170	0.14669	785.10	967.98	4.1934	1.9966	3.0930	548.74	1.3214	1.8035e-05	0.061498	
372.10	20.000	6.7934	0.14720	787.22	970.73	4.2008	1.9990	3.0911	549.19	1.3161	1.8037e-05	0.061561	
372.99	20.000	6.7700	0.14771	789.34	973.49	4.2082	2.0014	3.0892	549.63	1.3107	1.8039e-05	0.061626	
373.88	20.000	6.7469	0.14822	791.46	976.24	4.2155	2.0039	3.0874	550.08	1.3053	1.8041e-05	0.061692	
374.77	20.000	6.7239	0.14872	793.58	978.99	4.2229	2.0063	3.0856	550.53	1.3000	1.8043e-05	0.061759	
375.66	20.000	6.7011	0.14923	795.69	981.73	4.2302	2.0087	3.0839	550.98	1.2946	1.8046e-05	0.061827	
376.55	20.000	6.6785	0.14974	797.81	984.48	4.2375	2.0112	3.0823	551.43	1.2892	1.8049e-05	0.061896	
377.44	20.000	6.6560	0.15024	799.92	987.22	4.2448	2.0136	3.0807	551.88	1.2838	1.8052e-05	0.061966	
378.33	20.000	6.6338	0.15074	802.04	989.96	4.2520	2.0161	3.0792	552.33	1.2785	1.8055e-05	0.062038	
379.22	20.000	6.6117	0.15125	804.15	992.71	4.2593	2.0186	3.0777	552.79	1.2731	1.8058e-05	0.062110	
380.11	20.000	6.5898	0.15175	806.27	995.45	4.2665	2.0211	3.0763	553.24	1.2677	1.8062e-05	0.062183	
381.00	20.000	6.5681	0.15225	808.38	998.18	4.2737	2.0236	3.0749	553.70	1.2623	1.8066e-05	0.062257	
381.89	20.000	6.5466	0.15275	810.49	1000.9	4.2809	2.0261	3.0736	554.15	1.2569	1.8070e-05	0.062332	
382.78	20.000	6.5252	0.15325	812.60	1003.7	4.2880	2.0287	3.0724	554.61	1.2515	1.8074e-05	0.062408	
383.67	20.000	6.5040	0.15375	814.72	1006.4	4.2952	2.0312	3.0712	555.07	1.2462	1.8079e-05	0.062486	
384.56	20.000	6.4829	0.15425	816.83	1009.1	4.3023	2.0338	3.0700	555.52	1.2408	1.8083e-05	0.062564	
385.45	20.000	6.4621	0.15475	818.94	1011.9	4.3094	2.0363	3.0689	555.98	1.2354	1.8088e-05	0.062643	
386.34	20.000	6.4414	0.15525	821.05	1014.6	4.3165	2.0389	3.0679	556.44	1.2300	1.8093e-05	0.062723	
387.23	20.000	6.4208	0.15574	823.17	1017.3	4.3235	2.0415	3.0669	556.90	1.2247	1.8098e-05	0.062803	
388.12	20.000	6.4004	0.15624	825.28	1020.1	4.3306	2.0441	3.0660	557.36	1.2193	1.8104e-05	0.062885	
389.01	20.000	6.3802	0.15674	827.39	1022.8	4.3376	2.0467	3.0651	557.82	1.2139	1.8109e-05	0.062968	
389.91	20.000	6.3601	0.15723	829.50	1025.5	4.3446	2.0493	3.0642	558.28	1.2086	1.8115e-05	0.063051	
390.80	20.000	6.3401	0.15773	831.61	1028.2	4.3516	2.0519	3.0634	558.74	1.2032	1.8120e-05	0.063136	
391.69	20.000	6.3203	0.15822	833.72	1031.0	4.3586	2.0545	3.0627	559.20	1.1979	1.8126e-05	0.063221	
392.58	20.000	6.3007	0.15871	835.84	1033.7	4.3655	2.0572	3.0619	559.66	1.1925	1.8133e-05	0.063307	
393.47	20.000	6.2812	0.15921	837.95	1036.4	4.3725	2.0598	3.0613	560.12	1.1872	1.8139e-05	0.063394	
394.36	20.000	6.2618	0.15970	840.06	1039.2	4.3794	2.0625	3.0607	560.58	1.1819	1.8145e-05	0.063482	
395.25	20.000	6.2426	0.16019	842.17	1041.9	4.3863	2.0652	3.0601	561.05	1.1766	1.8152e-05	0.063570	
396.14	20.000	6.2236	0.16068	844.29	1044.6	4.3932	2.0678	3.0595	561.51	1.1713	1.8159e-05	0.063660	
397.03	20.000	6.2046	0.16117	846.40	1047.3	4.4000	2.0705	3.0591	561.97	1.1660	1.8165e-05	0.063750	
397.92	20.000	6.1859	0.16166	848.51	1050.0	4.4069	2.0732	3.0586	562.43	1.1607	1.8172e-05	0.063841	
398.81	20.000	6.1672	0.16215	850.63	1052.8	4.4137	2.0759	3.0582	562.90	1.1554	1.8180e-05	0.063933	
399.70	20.000	6.1487	0.16264	852.74	1055.5	4.4205	2.0786	3.0578	563.36	1.1501	1.8187e-05	0.064026	
400.59	20.000	6.1303	0.16312	854.86	1058.2	4.4274	2.0813	3.0575	563.83	1.1448	1.8194e-05	0.064119	
401.48	20.000	6.1120	0.16361	856.97	1060.9	4.4341	2.0841	3.0572	564.29	1.1396	1.8202e-05	0.064213	
402.37	20.000	6.0939	0.16410	859.09	1063.7	4.4409	2.0868	3.0570	564.75	1.1344	1.8210e-05	0.064308	
403.26	20.000	6.0759	0.16458	861.21	1066.4	4.4477	2.0895	3.0568	565.22	1.1291	1.8217e-05	0.064404	
404.15	20.000	6.0581	0.16507	863.32	1069.1	4.4544	2.0923	3.0566	565.68	1.1239	1.8225e-05	0.064500	
405.04	20.000	6.0403	0.16555	865.44	1071.8	4.4611	2.0951	3.0565	566.15	1.1187	1.8234e-05	0.064598	
405.93	20.000	6.0227	0.16604	867.56	1074.6	4.4679	2.0978	3.0564	566.61	1.1135	1.8242e-05	0.064696	
406.83	20.000	6.0052	0.16652	869.68	1077.3	4.4746	2.1006	3.0563	567.07	1.1083	1.8250e-05	0.064794	
407.72	20.000	5.9878	0.16701	871.80	1080.0	4.4812	2.1034	3.0563	567.54	1.1031	1.8258e-05	0.064894	
408.61	20.000	5.9706	0.16749	873.92	1082.7	4.4879	2.1062	3.0563	568.00	1.0980	1.8267e-05	0.064994	
409.50	20.000	5.9534	0.16797	876.04	1085.4	4.4946	2.1090	3.0563	568.47	1.0928	1.8276e-05	0.065094	
410.39	20.000	5.9364	0.16845	878.16	1088.2	4.5012	2.1118	3.0564	568.93	1.0877	1.8285e-05	0.065196	
411.28	20.000	5.9195	0.16893	880.28	1090.9	4.5078	2.1146	3.0565	569.40	1.0826	1.8293e-05	0.065298	
412.17	20.000	5.9027	0.16941	882.40	1093.6	4.5144	2.1174	3.0567	569.86	1.0775	1.8302e-05	0.065401	
413.06	20.000	5.8861	0.16989	884.53	1096.3	4.5210	2.1202	3.0569	570.33	1.0724	1.8312e-05	0.065504	
413.95	20.000	5.8695	0.17037	886.65	1099.0	4.5276	2.1230	3.0571	570.79	1.0673	1.8321e-05	0.065609	
414.84	20.000	5.8530	0.17085	888.78	1101.8	4.5342	2.1259	3.0573	571.26	1.0622	1.8330e-05	0.065714	
415.73	20.000	5.8367	0.17133	890.90	1104.5	4.5407	2.1287	3.0576	571.72	1.0572	1.8340e-05	0.065819	
416.62	20.000	5.8205	0.17181	893.03	1107.2	4.5473	2.1316	3.0579	572.19	1.0521	1.8349e-05	0.065925	
417.51	20.000	5.8043	0.17228	895.16	1109.9	4.5538	2.1344	3.0583	572.65	1.0471	1.8359e-05	0.066032	
418.40	20.000	5.7883	0.17276	897.29	1112.7	4.5603	2.1373	3.0587	573.11	1.0421	1.8369e-05	0.066139	
419.29	20.000	5.7724	0.17324	899.42	1115.4	4.5668	2.1402	3.0591	573.58	1.0371	1.8379e-05	0.066247	
420.18	20.000	5.7566	0.17371	901.55	1118.1	4.5733	2.1431	3.0595	574.04	1.0321	1.8388e-05	0.066356	
421.07	20.000	5.7409	0.17419	903.68	1120.8	4.5798	2.1459	3.0600	574.51	1.0271	1.8399e-05	0.066465	
421.96	20.000	5.7253	0.17466	905.81	1123.6	4.5863	2.1488	3.0605	574.97	1.0222	1.8409e-05	0.066575	
422.85	20.000	5.7098	0.17514	907.95	1126.3	4.5927	2.1517	3.0610	575.43	1.0173	1.8419e-05	0.066686	
423.74	20.000	5.6944	0.17561	910.08	1129.0	4.5992	2.1546	3.0615	575.90	1.0123	1.8429e-05	0.066797	
424.64	20.000	5.6791	0.17608	912.22	1131.7	4.6056	2.1575	3.0621	576.36	1.0074	1.8440e-05	0.066909	
425.53	20.000	5.6639	0.17656	914.36	1134.5	4.6120	2.1604	3.0627	576.83	1.0025	1.8450e-05	0.067021	
426.42	20.000	5.6488	0.17703	916.50	1137.2	4.6184	2.1634	3.0634	577.29	0.99766	1.8461e-05	0.067134	
427.31	20.000	5.6337	0.17750	918.64	1139.9	4.6248	2.1663	3.0640	577.75	0.99281	1.8471e-05	0.067248	
428.20	20.000	5.6188	0.17797	920.78	1142.7	4.6312	2.1692	3.0647	578.22	0.98796	1.8482e-05	0.067362	
429.09	20.000	5.6040	0.17844	922.92	1145.4	4.6375	2.1722	3.0654	578.68	0.98314	1.8493e-05	0.067476	
429.98	20.000	5.5893	0.17891	925.06	1148.1	4.6439	2.1751	3.0662	579.14	0.97833	1.8504e-05	0.067591	
430.87	20.000	5.5746	0.17938	927.21	1150.8	4.6502	2.1780	3.0669	579.60	0.97353	1.8515e-05	0.067707	
431.76	20.000	5.5601	0.17985	929.36	1153.6	4.6566	2.1810	3.0677	580.07	0.96875	1.8526e-05	0.067823	
432.65	20.000	5.5456	0.18032	931.50	1156.3	4.6629	2.1839	3.0685	580.53	0.96399	1.8537e-05	0.067940	
433.54	20.000	5.5312	0.18079	933.65	1159.0	4.6692	2.1869	3.0694	580.99	0.95925	1.8549e-05	0.068058	
434.43	20.000	5.5169	0.18126	935.80	1161.8	4.6755	2.1899	3.0702	581.45	0.95452	1.8560e-05	0.068176	
435.32	20.000	5.5027	0.18173	937.95	1164.5	4.6818	2.1928	3.0711	581.91	0.94981	1.8571e-05	0.068294	
436.21	20.000	5.4886	0.18219	940.11	1167.2	4.6881	2.1958	3.0720	582.37	0.94511	1.8583e-05	0.068413	
437.10	20.000	5.4746	0.18266	942.26	1170.0	4.6943	2.1988	3.0730	582.83	0.94043	1.8594e-05	0.068533	
437.99	20.000	5.4607	0.18313	944.42	1172.7	4.7006	2.2018	3.0739	583.29	0.93577	1.8606e-05	0.068653	
438.88	20.000	5.4468	0.18359	946.57	1175.5	4.7068	2.2048	3.0749	583.76	0.93112	1.8618e-05	0.068773	
439.77	20.000	5.4330	0.18406	948.73	1178.2	4.7131	2.2078	3.0759	584.22	0.92649	1.8629e-05	0.068894	
440.66	20.000	5.4193	0.18452	950.89	1180.9	4.7193	2.2108	3.0770	584.68	0.92188	1.8641e-05	0.069016	
441.55	20.000	5.4057	0.18499	953.05	1183.7	4.7255	2.2138	3.0780	585.14	0.91729	1.8653e-05	0.069138	
442.45	20.000	5.3922	0.18545	955.21	1186.4	4.7317	2.2168	3.0791	585.59	0.91271	1.8665e-05	0.069261	
443.34	20.000	5.3787	0.18592	957.38	1189.2	4.7379	2.2198	3.0802	586.05	0.90815	1.8677e-05	0.069384	
444.23	20.000	5.3654	0.18638	959.54	1191.9	4.7441	2.2228	3.0813	586.51	0.90360	1.8689e-05	0.069507	
445.12	20.000	5.3521	0.18684	961.71	1194.6	4.7503	2.2258	3.0824	586.97	0.89907	1.8701e-05	0.069632	
446.01	20.000	5.3389	0.18731	963.88	1197.4	4.7564	2.2289	3.0836	587.43	0.89456	1.8714e-05	0.069756	
446.90	20.000	5.3257	0.18777	966.05	1200.1	4.7626	2.2319	3.0847	587.89	0.89007	1.8726e-05	0.069881	
447.79	20.000	5.3127	0.18823	968.22	1202.9	4.7687	2.2349	3.0859	588.35	0.88560	1.8738e-05	0.070007	
448.68	20.000	5.2997	0.18869	970.40	1205.6	4.7748	2.2380	3.0872	588.80	0.88114	1.8751e-05	0.070133	
449.57	20.000	5.2867	0.18915	972.57	1208.4	4.7810	2.2410	3.0884	589.26	0.87669	1.8763e-05	0.070259	
450.46	20.000	5.2739	0.18961	974.75	1211.1	4.7871	2.2440	3.0896	589.72	0.87227	1.8776e-05	0.070386	
451.35	20.000	5.2611	0.19007	976.93	1213.9	4.7932	2.2471	3.0909	590.18	0.86786	1.8788e-05	0.070513	
452.24	20.000	5.2484	0.19053	979.11	1216.6	4.7993	2.2501	3.0922	590.63	0.86347	1.8801e-05	0.070641	
453.13	20.000	5.2358	0.19099	981.29	1219.4	4.8054	2.2532	3.0935	591.09	0.85910	1.8814e-05	0.070769	
454.02	20.000	5.2233	0.19145	983.47	1222.1	4.8114	2.2563	3.0949	591.54	0.85474	1.8827e-05	0.070898	
454.91	20.000	5.2108	0.19191	985.66	1224.9	4.8175	2.2593	3.0962	592.00	0.85040	1.8839e-05	0.071027	
455.80	20.000	5.1984	0.19237	987.84	1227.7	4.8236	2.2624	3.0976	592.46	0.84608	1.8852e-05	0.071157	
456.69	20.000	5.1860	0.19283	990.03	1230.4	4.8296	2.2655	3.0989	592.91	0.84178	1.8865e-05	0.071287	
457.58	20.000	5.1738	0.19328	992.22	1233.2	4.8356	2.2685	3.1003	593.36	0.83749	1.8878e-05	0.071418	
458.47	20.000	5.1616	0.19374	994.41	1235.9	4.8417	2.2716	3.1018	593.82	0.83322	1.8891e-05	0.071548	
459.37	20.000	5.1494	0.19420	996.61	1238.7	4.8477	2.2747	3.1032	594.27	0.82897	1.8904e-05	0.071680	
460.26	20.000	5.1374	0.19465	998.80	1241.5	4.8537	2.2778	3.1047	594.73	0.82473	1.8918e-05	0.071812	
461.15	20.000	5.1254	0.19511	1001.0	1244.2	4.8597	2.2809	3.1061	595.18	0.82051	1.8931e-05	0.071944	
462.04	20.000	5.1134	0.19556	1003.2	1247.0	4.8657	2.2839	3.1076	595.63	0.81631	1.8944e-05	0.072076	
462.93	20.000	5.1015	0.19602	1005.4	1249.8	4.8717	2.2870	3.1091	596.09	0.81213	1.8957e-05	0.072209	
463.82	20.000	5.0897	0.19647	1007.6	1252.5	4.8777	2.2901	3.1106	596.54	0.80796	1.8971e-05	0.072343	
464.71	20.000	5.0780	0.19693	1009.8	1255.3	4.8836	2.2932	3.1122	596.99	0.80381	1.8984e-05	0.072477	
465.60	20.000	5.0663	0.19738	1012.0	1258.1	4.8896	2.2963	3.1137	597.44	0.79967	1.8997e-05	0.072611	
466.49	20.000	5.0547	0.19784	1014.2	1260.9	4.8955	2.2994	3.1153	597.89	0.79556	1.9011e-05	0.072746	
467.38	20.000	5.0431	0.19829	1016.4	1263.6	4.9015	2.3025	3.1169	598.35	0.79146	1.9024e-05	0.072881	
468.27	20.000	5.0316	0.19874	1018.6	1266.4	4.9074	2.3057	3.1184	598.80	0.78738	1.9038e-05	0.073016	
469.16	20.000	5.0202	0.19920	1020.9	1269.2	4.9133	2.3088	3.1201	599.25	0.78331	1.9052e-05	0.073152	
470.05	20.000	5.0088	0.19965	1023.1	1272.0	4.9193	2.3119	3.1217	599.70	0.77926	1.9065e-05	0.073288	
470.94	20.000	4.9975	0.20010	1025.3	1274.7	4.9252	2.3150	3.1233	600.15	0.77523	1.9079e-05	0.073425	
471.83	20.000	4.9863	0.20055	1027.5	1277.5	4.9311	2.3181	3.1250	600.60	0.77122	1.9093e-05	0.073562	
472.72	20.000	4.9751	0.20100	1029.7	1280.3	4.9370	2.3212	3.1266	601.05	0.76722	1.9107e-05	0.073699	
473.61	20.000	4.9639	0.20145	1031.9	1283.1	4.9429	2.3244	3.1283	601.50	0.76324	1.9120e-05	0.073837	
474.50	20.000	4.9528	0.20190	1034.2	1285.9	4.9487	2.3275	3.1300	601.94	0.75927	1.9134e-05	0.073975	
475.39	20.000	4.9418	0.20235	1036.4	1288.7	4.9546	2.3306	3.1317	602.39	0.75533	1.9148e-05	0.074114	
476.28	20.000	4.9309	0.20280	1038.6	1291.5	4.9605	2.3338	3.1334	602.84	0.75139	1.9162e-05	0.074252	
477.18	20.000	4.9199	0.20325	1040.9	1294.2	4.9663	2.3369	3.1352	603.29	0.74748	1.9176e-05	0.074392	
478.07	20.000	4.9091	0.20370	1043.1	1297.0	4.9722	2.3400	3.1369	603.73	0.74358	1.9190e-05	0.074531	
478.96	20.000	4.8983	0.20415	1045.3	1299.8	4.9780	2.3432	3.1387	604.18	0.73970	1.9204e-05	0.074671	
479.85	20.000	4.8876	0.20460	1047.6	1302.6	4.9838	2.3463	3.1405	604.63	0.73584	1.9218e-05	0.074812	
480.74	20.000	4.8769	0.20505	1049.8	1305.4	4.9897	2.3495	3.1423	605.07	0.73199	1.9233e-05	0.074952	
481.63	20.000	4.8662	0.20550	1052.0	1308.2	4.9955	2.3526	3.1441	605.52	0.72816	1.9247e-05	0.075093	
482.52	20.000	4.8557	0.20595	1054.3	1311.0	5.0013	2.3557	3.1459	605.97	0.72434	1.9261e-05	0.075235	
483.41	20.000	4.8451	0.20639	1056.5	1313.8	5.0071	2.3589	3.1477	606.41	0.72054	1.9275e-05	0.075377	
484.30	20.000	4.8347	0.20684	1058.8	1316.6	5.0129	2.3620	3.1495	606.86	0.71676	1.9290e-05	0.075519	
485.19	20.000	4.8242	0.20729	1061.0	1319.4	5.0187	2.3652	3.1514	607.30	0.71300	1.9304e-05	0.075661	
486.08	20.000	4.8139	0.20773	1063.3	1322.2	5.0245	2.3684	3.1532	607.74	0.70925	1.9318e-05	0.075804	
486.97	20.000	4.8036	0.20818	1065.5	1325.1	5.0302	2.3715	3.1551	608.19	0.70551	1.9333e-05	0.075947	
487.86	20.000	4.7933	0.20863	1067.8	1327.9	5.0360	2.3747	3.1570	608.63	0.70179	1.9347e-05	0.076090	
488.75	20.000	4.7831	0.20907	1070.0	1330.7	5.0418	2.3778	3.1589	609.07	0.69809	1.9362e-05	0.076234	
489.64	20.000	4.7729	0.20952	1072.3	1333.5	5.0475	2.3810	3.1608	609.52	0.69441	1.9376e-05	0.076378	
490.53	20.000	4.7628	0.20996	1074.6	1336.3	5.0532	2.3842	3.1627	609.96	0.69074	1.9391e-05	0.076523	
491.42	20.000	4.7527	0.21041	1076.8	1339.1	5.0590	2.3873	3.1646	610.40	0.68709	1.9405e-05	0.076668	
492.31	20.000	4.7427	0.21085	1079.1	1341.9	5.0647	2.3905	3.1666	610.84	0.68345	1.9420e-05	0.076813	
493.20	20.000	4.7327	0.21129	1081.4	1344.8	5.0704	2.3937	3.1685	611.28	0.67983	1.9434e-05	0.076958	
494.10	20.000	4.7228	0.21174	1083.6	1347.6	5.0762	2.3968	3.1705	611.72	0.67622	1.9449e-05	0.077104	
494.99	20.000	4.7130	0.21218	1085.9	1350.4	5.0819	2.4000	3.1725	612.17	0.67263	1.9464e-05	0.077250	
495.88	20.000	4.7031	0.21262	1088.2	1353.2	5.0876	2.4032	3.1744	612.61	0.66906	1.9478e-05	0.077396	
496.77	20.000	4.6934	0.21307	1090.4	1356.1	5.0933	2.4063	3.1764	613.05	0.66550	1.9493e-05	0.077543	
497.66	20.000	4.6836	0.21351	1092.7	1358.9	5.0990	2.4095	3.1784	613.48	0.66196	1.9508e-05	0.077690	
498.55	20.000	4.6739	0.21395	1095.0	1361.7	5.1046	2.4127	3.1804	613.92	0.65843	1.9523e-05	0.077837	
499.44	20.000	4.6643	0.21439	1097.3	1364.6	5.1103	2.4159	3.1825	614.36	0.65492	1.9538e-05	0.077985	
500.33	20.000	4.6547	0.21484	1099.6	1367.4	5.1160	2.4191	3.1845	614.80	0.65142	1.9553e-05	0.078133	
501.22	20.000	4.6452	0.21528	1101.9	1370.2	5.1217	2.4222	3.1865	615.24	0.64794	1.9567e-05	0.078281	
502.11	20.000	4.6357	0.21572	1104.1	1373.1	5.1273	2.4254	3.1886	615.68	0.64447	1.9582e-05	0.078430	
503.00	20.000	4.6262	0.21616	1106.4	1375.9	5.1330	2.4286	3.1907	616.11	0.64102	1.9597e-05	0.078579	
503.89	20.000	4.6168	0.21660	1108.7	1378.8	5.1386	2.4318	3.1927	616.55	0.63759	1.9612e-05	0.078728	
504.78	20.000	4.6074	0.21704	1111.0	1381.6	5.1443	2.4350	3.1948	616.99	0.63417	1.9627e-05	0.078877	
505.67	20.000	4.5981	0.21748	1113.3	1384.4	5.1499	2.4382	3.1969	617.42	0.63076	1.9642e-05	0.079027	
506.56	20.000	4.5888	0.21792	1115.6	1387.3	5.1555	2.4413	3.1990	617.86	0.62738	1.9657e-05	0.079177	
507.45	20.000	4.5796	0.21836	1117.9	1390.1	5.1611	2.4445	3.2011	618.30	0.62400	1.9672e-05	0.079327	
508.34	20.000	4.5704	0.21880	1120.2	1393.0	5.1667	2.4477	3.2032	618.73	0.62064	1.9687e-05	0.079478	
509.23	20.000	4.5613	0.21924	1122.5	1395.8	5.1724	2.4509	3.2053	619.17	0.61730	1.9703e-05	0.079629	
510.12	20.000	4.5521	0.21968	1124.8	1398.7	5.1780	2.4541	3.2074	619.60	0.61397	1.9718e-05	0.079780	
511.01	20.000	4.5431	0.22012	1127.1	1401.6	5.1836	2.4573	3.2096	620.03	0.61065	1.9733e-05	0.079931	
511.91	20.000	4.5340	0.22055	1129.5	1404.4	5.1891	2.4605	3.2117	620.47	0.60735	1.9748e-05	0.080083	
512.80	20.000	4.5251	0.22099	1131.8	1407.3	5.1947	2.4637	3.2139	620.90	0.60407	1.9763e-05	0.080235	
513.69	20.000	4.5161	0.22143	1134.1	1410.1	5.2003	2.4669	3.2161	621.34	0.60080	1.9779e-05	0.080388	
514.58	20.000	4.5072	0.22187	1136.4	1413.0	5.2059	2.4701	3.2182	621.77	0.59754	1.9794e-05	0.080540	
515.47	20.000	4.4983	0.22230	1138.7	1415.9	5.2114	2.4733	3.2204	622.20	0.59430	1.9809e-05	0.080693	
516.36	20.000	4.4895	0.22274	1141.1	1418.7	5.2170	2.4765	3.2226	622.63	0.59107	1.9824e-05	0.080846	
517.25	20.000	4.4807	0.22318	1143.4	1421.6	5.2226	2.4797	3.2248	623.06	0.58786	1.9840e-05	0.081000	
518.14	20.000	4.4720	0.22361	1145.7	1424.5	5.2281	2.4829	3.2270	623.50	0.58466	1.9855e-05	0.081153	
519.03	20.000	4.4633	0.22405	1148.0	1427.4	5.2337	2.4861	3.2292	623.93	0.58147	1.9870e-05	0.081307	
519.92	20.000	4.4546	0.22449	1150.4	1430.2	5.2392	2.4893	3.2314	624.36	0.57830	1.9886e-05	0.081461	
520.81	20.000	4.4460	0.22492	1152.7	1433.1	5.2447	2.4925	3.2336	624.79	0.57515	1.9901e-05	0.081616	
521.70	20.000	4.4374	0.22536	1155.0	1436.0	5.2503	2.4957	3.2359	625.22	0.57201	1.9917e-05	0.081770	
522.59	20.000	4.4288	0.22579	1157.4	1438.9	5.2558	2.4989	3.2381	625.65	0.56888	1.9932e-05	0.081925	
523.48	20.000	4.4203	0.22623	1159.7	1441.8	5.2613	2.5021	3.2403	626.08	0.56576	1.9948e-05	0.082081	
524.37	20.000	4.4118	0.22666	1162.1	1444.6	5.2668	2.5053	3.2426	626.51	0.56266	1.9963e-05	0.082236	
525.26	20.000	4.4034	0.22710	1164.4	1447.5	5.2723	2.5085	3.2449	626.93	0.55958	1.9979e-05	0.082392	
526.15	20.000	4.3950	0.22753	1166.8	1450.4	5.2778	2.5117	3.2471	627.36	0.55651	1.9994e-05	0.082548	
527.04	20.000	4.3866	0.22797	1169.1	1453.3	5.2833	2.5149	3.2494	627.79	0.55345	2.0010e-05	0.082704	
527.93	20.000	4.3783	0.22840	1171.5	1456.2	5.2888	2.5181	3.2517	628.22	0.55040	2.0025e-05	0.082861	
528.82	20.000	4.3700	0.22883	1173.8	1459.1	5.2943	2.5213	3.2540	628.64	0.54737	2.0041e-05	0.083018	
529.72	20.000	4.3617	0.22927	1176.2	1462.0	5.2997	2.5245	3.2563	629.07	0.54435	2.0056e-05	0.083175	
530.61	20.000	4.3535	0.22970	1178.6	1464.9	5.3052	2.5277	3.2586	629.50	0.54135	2.0072e-05	0.083332	
531.50	20.000	4.3453	0.23013	1180.9	1467.8	5.3107	2.5309	3.2609	629.92	0.53836	2.0088e-05	0.083489	
532.39	20.000	4.3372	0.23056	1183.3	1470.7	5.3161	2.5341	3.2632	630.35	0.53538	2.0103e-05	0.083647	
533.28	20.000	4.3291	0.23100	1185.6	1473.6	5.3216	2.5373	3.2655	630.77	0.53242	2.0119e-05	0.083805	
534.17	20.000	4.3210	0.23143	1188.0	1476.5	5.3270	2.5405	3.2678	631.20	0.52947	2.0135e-05	0.083963	
535.06	20.000	4.3129	0.23186	1190.4	1479.4	5.3325	2.5437	3.2701	631.62	0.52653	2.0150e-05	0.084122	
535.95	20.000	4.3049	0.23229	1192.8	1482.4	5.3379	2.5469	3.2725	632.05	0.52361	2.0166e-05	0.084280	
536.84	20.000	4.2969	0.23272	1195.1	1485.3	5.3434	2.5501	3.2748	632.47	0.52070	2.0182e-05	0.084439	
537.73	20.000	4.2890	0.23316	1197.5	1488.2	5.3488	2.5533	3.2772	632.90	0.51780	2.0198e-05	0.084599	
538.62	20.000	4.2811	0.23359	1199.9	1491.1	5.3542	2.5566	3.2795	633.32	0.51491	2.0213e-05	0.084758	
539.51	20.000	4.2732	0.23402	1202.3	1494.0	5.3596	2.5598	3.2819	633.74	0.51204	2.0229e-05	0.084918	
540.40	20.000	4.2653	0.23445	1204.7	1497.0	5.3651	2.5630	3.2842	634.17	0.50918	2.0245e-05	0.085077	
541.29	20.000	4.2575	0.23488	1207.1	1499.9	5.3705	2.5662	3.2866	634.59	0.50634	2.0261e-05	0.085238	
542.18	20.000	4.2497	0.23531	1209.5	1502.8	5.3759	2.5694	3.2890	635.01	0.50350	2.0277e-05	0.085398	
543.07	20.000	4.2420	0.23574	1211.9	1505.7	5.3813	2.5726	3.2914	635.43	0.50068	2.0292e-05	0.085558	
543.96	20.000	4.2343	0.23617	1214.2	1508.7	5.3867	2.5758	3.2938	635.85	0.49788	2.0308e-05	0.085719	
544.85	20.000	4.2266	0.23660	1216.6	1511.6	5.3920	2.5790	3.2961	636.27	0.49508	2.0324e-05	0.085880	
545.74	20.000	4.2189	0.23703	1219.0	1514.5	5.3974	2.5822	3.2985	636.69	0.49230	2.0340e-05	0.086041	
546.64	20.000	4.2113	0.23746	1221.5	1517.5	5.4028	2.5854	3.3009	637.11	0.48953	2.0356e-05	0.086203	
547.53	20.000	4.2037	0.23789	1223.9	1520.4	5.4082	2.5886	3.3033	637.53	0.48677	2.0372e-05	0.086364	
548.42	20.000	4.1961	0.23831	1226.3	1523.4	5.4136	2.5918	3.3058	637.95	0.48402	2.0388e-05	0.086526	
549.31	20.000	4.1886	0.23874	1228.7	1526.3	5.4189	2.5950	3.3082	638.37	0.48129	2.0404e-05	0.086688	
550.20	20.000	4.1811	0.23917	1231.1	1529.3	5.4243	2.5982	3.3106	638.79	0.47857	2.0420e-05	0.086851	
551.09	20.000	4.1736	0.23960	1233.5	1532.2	5.4296	2.6014	3.3130	639.21	0.47586	2.0436e-05	0.087013	
551.98	20.000	4.1662	0.24003	1235.9	1535.2	5.4350	2.6046	3.3154	639.63	0.47316	2.0452e-05	0.087176	
552.87	20.000	4.1588	0.24046	1238.3	1538.1	5.4403	2.6079	3.3179	640.05	0.47048	2.0468e-05	0.087339	
553.76	20.000	4.1514	0.24088	1240.8	1541.1	5.4457	2.6111	3.3203	640.46	0.46781	2.0484e-05	0.087502	
554.65	20.000	4.1440	0.24131	1243.2	1544.0	5.4510	2.6143	3.3228	640.88	0.46515	2.0500e-05	0.087666	
555.54	20.000	4.1367	0.24174	1245.6	1547.0	5.4563	2.6175	3.3252	641.30	0.46250	2.0516e-05	0.087829	
556.43	20.000	4.1294	0.24216	1248.0	1549.9	5.4617	2.6207	3.3277	641.71	0.45986	2.0532e-05	0.087993	
557.32	20.000	4.1222	0.24259	1250.5	1552.9	5.4670	2.6239	3.3301	642.13	0.45724	2.0548e-05	0.088157	
558.21	20.000	4.1149	0.24302	1252.9	1555.9	5.4723	2.6271	3.3326	642.55	0.45462	2.0564e-05	0.088321	
559.10	20.000	4.1077	0.24344	1255.4	1558.8	5.4776	2.6303	3.3351	642.96	0.45202	2.0580e-05	0.088486	
559.99	20.000	4.1005	0.24387	1257.8	1561.8	5.4829	2.6335	3.3375	643.38	0.44943	2.0596e-05	0.088650	
560.88	20.000	4.0934	0.24430	1260.2	1564.8	5.4882	2.6367	3.3400	643.79	0.44685	2.0612e-05	0.088815	
561.77	20.000	4.0863	0.24472	1262.7	1567.8	5.4935	2.6399	3.3425	644.21	0.44429	2.0628e-05	0.088980	
562.66	20.000	4.0792	0.24515	1265.1	1570.7	5.4988	2.6431	3.3450	644.62	0.44173	2.0644e-05	0.089145	
563.55	20.000	4.0721	0.24557	1267.6	1573.7	5.5041	2.6463	3.3474	645.03	0.43919	2.0660e-05	0.089311	
564.45	20.000	4.0651	0.24600	1270.0	1576.7	5.5094	2.6495	3.3499	645.45	0.43665	2.0676e-05	0.089476	
565.34	20.000	4.0581	0.24642	1272.5	1579.7	5.5147	2.6527	3.3524	645.86	0.43413	2.0692e-05	0.089642	
566.23	20.000	4.0511	0.24685	1274.9	1582.7	5.5200	2.6559	3.3549	646.27	0.43162	2.0709e-05	0.089808	
567.12	20.000	4.0441	0.24727	1277.4	1585.7	5.5253	2.6591	3.3574	646.69	0.42912	2.0725e-05	0.089974	
568.01	20.000	4.0372	0.24770	1279.9	1588.7	5.5305	2.6623	3.3599	647.10	0.42664	2.0741e-05	0.090141	
568.90	20.000	4.0303	0.24812	1282.3	1591.6	5.5358	2.6655	3.3624	647.51	0.42416	2.0757e-05	0.090307	
569.79	20.000	4.0234	0.24855	1284.8	1594.6	5.5411	2.6687	3.3650	647.92	0.42169	2.0773e-05	0.090474	
570.68	20.000	4.0166	0.24897	1287.3	1597.6	5.5463	2.6719	3.3675	648.33	0.41924	2.0790e-05	0.090641	
571.57	20.000	4.0097	0.24939	1289.7	1600.6	5.5516	2.6751	3.3700	648.74	0.41680	2.0806e-05	0.090808	
572.46	20.000	4.0029	0.24982	1292.2	1603.6	5.5568	2.6783	3.3725	649.16	0.41436	2.0822e-05	0.090975	
573.35	20.000	3.9962	0.25024	1294.7	1606.6	5.5621	2.6815	3.3750	649.57	0.41194	2.0838e-05	0.091143	
574.24	20.000	3.9894	0.25066	1297.2	1609.7	5.5673	2.6847	3.3776	649.98	0.40953	2.0854e-05	0.091311	
575.13	20.000	3.9827	0.25109	1299.6	1612.7	5.5725	2.6879	3.3801	650.39	0.40713	2.0871e-05	0.091478	
576.02	20.000	3.9760	0.25151	1302.1	1615.7	5.5778	2.6911	3.3826	650.79	0.40474	2.0887e-05	0.091646	
576.91	20.000	3.9693	0.25193	1304.6	1618.7	5.5830	2.6943	3.3852	651.20	0.40236	2.0903e-05	0.091815	
577.80	20.000	3.9627	0.25235	1307.1	1621.7	5.5882	2.6974	3.3877	651.61	0.40000	2.0919e-05	0.091983	
578.69	20.000	3.9561	0.25278	1309.6	1624.7	5.5934	2.7006	3.3903	652.02	0.39764	2.0936e-05	0.092152	
579.58	20.000	3.9495	0.25320	1312.1	1627.7	5.5986	2.7038	3.3928	652.43	0.39529	2.0952e-05	0.092321	
580.47	20.000	3.9429	0.25362	1314.6	1630.8	5.6039	2.7070	3.3954	652.84	0.39295	2.0968e-05	0.092490	
581.37	20.000	3.9363	0.25404	1317.1	1633.8	5.6091	2.7102	3.3979	653.24	0.39063	2.0985e-05	0.092659	
582.26	20.000	3.9298	0.25446	1319.6	1636.8	5.6143	2.7134	3.4005	653.65	0.38831	2.1001e-05	0.092828	
583.15	20.000	3.9233	0.25489	1322.1	1639.8	5.6195	2.7166	3.4030	654.06	0.38600	2.1017e-05	0.092997	
584.04	20.000	3.9168	0.25531	1324.6	1642.9	5.6247	2.7198	3.4056	654.46	0.38371	2.1033e-05	0.093167	
584.93	20.000	3.9104	0.25573	1327.1	1645.9	5.6299	2.7230	3.4082	654.87	0.38142	2.1050e-05	0.093337	
585.82	20.000	3.9040	0.25615	1329.6	1648.9	5.6350	2.7261	3.4107	655.28	0.37915	2.1066e-05	0.093507	
586.71	20.000	3.8976	0.25657	1332.1	1652.0	5.6402	2.7293	3.4133	655.68	0.37688	2.1082e-05	0.093677	
587.60	20.000	3.8912	0.25699	1334.6	1655.0	5.6454	2.7325	3.4159	656.09	0.37463	2.1099e-05	0.093848	
588.49	20.000	3.8848	0.25741	1337.2	1658.1	5.6506	2.7357	3.4185	656.49	0.37238	2.1115e-05	0.094018	
589.38	20.000	3.8785	0.25783	1339.7	1661.1	5.6557	2.7389	3.4210	656.90	0.37015	2.1131e-05	0.094189	
590.27	20.000	3.8722	0.25825	1342.2	1664.2	5.6609	2.7421	3.4236	657.30	0.36792	2.1148e-05	0.094360	
591.16	20.000	3.8659	0.25867	1344.7	1667.2	5.6661	2.7452	3.4262	657.70	0.36571	2.1164e-05	0.094531	
592.05	20.000	3.8596	0.25909	1347.3	1670.3	5.6712	2.7484	3.4288	658.11	0.36350	2.1181e-05	0.094702	
592.94	20.000	3.8534	0.25951	1349.8	1673.3	5.6764	2.7516	3.4314	658.51	0.36130	2.1197e-05	0.094873	
593.83	20.000	3.8472	0.25993	1352.3	1676.4	5.6815	2.7548	3.4340	658.91	0.35912	2.1213e-05	0.095045	
594.72	20.000	3.8410	0.26035	1354.9	1679.4	5.6867	2.7580	3.4366	659.32	0.35694	2.1230e-05	0.095216	
595.61	20.000	3.8348	0.26077	1357.4	1682.5	5.6918	2.7611	3.4392	659.72	0.35477	2.1246e-05	0.095388	
596.50	20.000	3.8286	0.26119	1359.9	1685.6	5.6970	2.7643	3.4418	660.12	0.35262	2.1263e-05	0.095560	
597.39	20.000	3.8225	0.26161	1362.5	1688.6	5.7021	2.7675	3.4444	660.52	0.35047	2.1279e-05	0.095733	
598.28	20.000	3.8164	0.26203	1365.0	1691.7	5.7072	2.7706	3.4470	660.92	0.34833	2.1295e-05	0.095905	
599.18	20.000	3.8103	0.26245	1367.6	1694.8	5.7124	2.7738	3.4496	661.32	0.34620	2.1312e-05	0.096077	
600.07	20.000	3.8042	0.26286	1370.1	1697.8	5.7175	2.7770	3.4522	661.73	0.34408	2.1328e-05	0.096250	
600.96	20.000	3.7982	0.26328	1372.7	1700.9	5.7226	2.7802	3.4548	662.13	0.34197	2.1345e-05	0.096423	
601.85	20.000	3.7922	0.26370	1375.2	1704.0	5.7277	2.7833	3.4574	662.53	0.33987	2.1361e-05	0.096596	
602.74	20.000	3.7862	0.26412	1377.8	1707.1	5.7329	2.7865	3.4600	662.93	0.33777	2.1377e-05	0.096769	
603.63	20.000	3.7802	0.26454	1380.4	1710.2	5.7380	2.7897	3.4626	663.33	0.33569	2.1394e-05	0.096942	
604.52	20.000	3.7742	0.26495	1382.9	1713.2	5.7431	2.7928	3.4653	663.73	0.33362	2.1410e-05	0.097116	
605.41	20.000	3.7683	0.26537	1385.5	1716.3	5.7482	2.7960	3.4679	664.12	0.33155	2.1427e-05	0.097289	
606.30	20.000	3.7624	0.26579	1388.1	1719.4	5.7533	2.7992	3.4705	664.52	0.32950	2.1443e-05	0.097463	
607.19	20.000	3.7565	0.26621	1390.6	1722.5	5.7584	2.8023	3.4731	664.92	0.32745	2.1460e-05	0.097637	
608.08	20.000	3.7506	0.26662	1393.2	1725.6	5.7635	2.8055	3.4758	665.32	0.32541	2.1476e-05	0.097811	
608.97	20.000	3.7448	0.26704	1395.8	1728.7	5.7685	2.8086	3.4784	665.72	0.32338	2.1493e-05	0.097985	
609.86	20.000	3.7389	0.26746	1398.4	1731.8	5.7736	2.8118	3.4810	666.11	0.32136	2.1509e-05	0.098159	
610.75	20.000	3.7331	0.26787	1400.9	1734.9	5.7787	2.8150	3.4836	666.51	0.31935	2.1526e-05	0.098334	
611.64	20.000	3.7273	0.26829	1403.5	1738.0	5.7838	2.8181	3.4863	666.91	0.31735	2.1542e-05	0.098509	
612.53	20.000	3.7215	0.26871	1406.1	1741.1	5.7889	2.8213	3.4889	667.31	0.31536	2.1559e-05	0.098683	
613.42	20.000	3.7158	0.26912	1408.7	1744.2	5.7939	2.8244	3.4915	667.70	0.31337	2.1575e-05	0.098858	
614.31	20.000	3.7100	0.26954	1411.3	1747.3	5.7990	2.8276	3.4942	668.10	0.31139	2.1592e-05	0.099033	
615.20	20.000	3.7043	0.26995	1413.9	1750.4	5.8041	2.8307	3.4968	668.49	0.30943	2.1608e-05	0.099209	
616.09	20.000	3.6986	0.27037	1416.5	1753.6	5.8091	2.8339	3.4995	668.89	0.30747	2.1625e-05	0.099384	
616.99	20.000	3.6929	0.27079	1419.1	1756.7	5.8142	2.8370	3.5021	669.28	0.30552	2.1641e-05	0.099559	
617.88	20.000	3.6873	0.27120	1421.7	1759.8	5.8192	2.8402	3.5048	669.68	0.30357	2.1658e-05	0.099735	
618.77	20.000	3.6817	0.27162	1424.3	1762.9	5.8243	2.8433	3.5074	670.07	0.30164	2.1674e-05	0.099911	
619.66	20.000	3.6760	0.27203	1426.9	1766.0	5.8293	2.8465	3.5101	670.47	0.29971	2.1691e-05	0.10009	
620.55	20.000	3.6704	0.27245	1429.5	1769.2	5.8344	2.8496	3.5127	670.86	0.29780	2.1707e-05	0.10026	
621.44	20.000	3.6648	0.27286	1432.1	1772.3	5.8394	2.8528	3.5154	671.26	0.29589	2.1724e-05	0.10044	
622.33	20.000	3.6593	0.27328	1434.7	1775.4	5.8444	2.8559	3.5180	671.65	0.29399	2.1740e-05	0.10062	
623.22	20.000	3.6537	0.27369	1437.4	1778.6	5.8495	2.8591	3.5207	672.04	0.29209	2.1757e-05	0.10079	
624.11	20.000	3.6482	0.27411	1440.0	1781.7	5.8545	2.8622	3.5233	672.43	0.29021	2.1773e-05	0.10097	

];
h=(data(:,6));
t=data(:,1);
s=data(:,7);

