function [t,s,h]=R134aisop_009
data=[
    169.85	0.090000	15.595	0.064122	71.439	71.495	0.41252	0.79224	1.1838	1120.3	-0.38152	0.0021568	0.14527	
170.33	0.090000	15.583	0.064173	72.001	72.058	0.41583	0.79204	1.1838	1117.9	-0.38122	0.0021134	0.14498	
170.80	0.090000	15.571	0.064223	72.564	72.621	0.41913	0.79187	1.1838	1115.5	-0.38092	0.0020715	0.14469	
171.28	0.090000	15.558	0.064274	73.127	73.183	0.42242	0.79170	1.1838	1113.1	-0.38061	0.0020311	0.14440	
171.75	0.090000	15.546	0.064325	73.689	73.746	0.42570	0.79156	1.1839	1110.6	-0.38030	0.0019922	0.14411	
172.23	0.090000	15.534	0.064376	74.252	74.309	0.42897	0.79143	1.1840	1108.2	-0.37997	0.0019545	0.14382	
172.70	0.090000	15.521	0.064427	74.814	74.871	0.43223	0.79132	1.1841	1105.8	-0.37964	0.0019182	0.14353	
173.18	0.090000	15.509	0.064478	75.377	75.434	0.43549	0.79122	1.1842	1103.4	-0.37931	0.0018830	0.14324	
173.65	0.090000	15.497	0.064529	75.940	75.997	0.43873	0.79114	1.1843	1101.0	-0.37896	0.0018489	0.14295	
174.13	0.090000	15.485	0.064580	76.503	76.560	0.44197	0.79107	1.1844	1098.6	-0.37861	0.0018160	0.14266	
174.60	0.090000	15.472	0.064632	77.066	77.123	0.44520	0.79102	1.1846	1096.1	-0.37826	0.0017841	0.14237	
175.08	0.090000	15.460	0.064683	77.629	77.686	0.44842	0.79097	1.1847	1093.7	-0.37789	0.0017531	0.14209	
175.55	0.090000	15.448	0.064735	78.192	78.249	0.45163	0.79095	1.1849	1091.3	-0.37752	0.0017231	0.14180	
176.03	0.090000	15.435	0.064787	78.755	78.812	0.45483	0.79093	1.1851	1088.9	-0.37715	0.0016940	0.14152	
176.50	0.090000	15.423	0.064839	79.318	79.375	0.45803	0.79093	1.1853	1086.5	-0.37677	0.0016657	0.14123	
176.98	0.090000	15.411	0.064891	79.881	79.938	0.46122	0.79094	1.1855	1084.0	-0.37638	0.0016383	0.14095	
177.45	0.090000	15.398	0.064943	80.445	80.502	0.46440	0.79096	1.1857	1081.6	-0.37599	0.0016116	0.14066	
177.93	0.090000	15.386	0.064995	81.008	81.065	0.46757	0.79099	1.1859	1079.2	-0.37559	0.0015857	0.14038	
178.40	0.090000	15.373	0.065047	81.572	81.629	0.47073	0.79104	1.1862	1076.8	-0.37518	0.0015605	0.14010	
178.88	0.090000	15.361	0.065099	82.135	82.193	0.47389	0.79109	1.1864	1074.4	-0.37477	0.0015360	0.13981	
179.35	0.090000	15.349	0.065152	82.699	82.757	0.47704	0.79116	1.1867	1072.0	-0.37435	0.0015122	0.13953	
179.83	0.090000	15.336	0.065205	83.263	83.321	0.48018	0.79124	1.1870	1069.5	-0.37393	0.0014889	0.13925	
180.31	0.090000	15.324	0.065257	83.827	83.885	0.48331	0.79132	1.1872	1067.1	-0.37350	0.0014663	0.13897	
180.78	0.090000	15.312	0.065310	84.392	84.449	0.48644	0.79142	1.1875	1064.7	-0.37307	0.0014443	0.13869	
181.26	0.090000	15.299	0.065363	84.956	85.014	0.48955	0.79153	1.1878	1062.3	-0.37263	0.0014228	0.13841	
181.73	0.090000	15.287	0.065416	85.521	85.578	0.49266	0.79165	1.1881	1059.9	-0.37218	0.0014019	0.13813	
182.21	0.090000	15.274	0.065469	86.085	86.143	0.49577	0.79177	1.1885	1057.5	-0.37173	0.0013815	0.13785	
182.68	0.090000	15.262	0.065522	86.650	86.708	0.49886	0.79191	1.1888	1055.0	-0.37128	0.0013616	0.13757	
183.16	0.090000	15.250	0.065576	87.215	87.273	0.50195	0.79205	1.1891	1052.6	-0.37082	0.0013422	0.13729	
183.63	0.090000	15.237	0.065629	87.780	87.838	0.50503	0.79221	1.1895	1050.2	-0.37035	0.0013233	0.13702	
184.11	0.090000	15.225	0.065683	88.346	88.404	0.50811	0.79237	1.1898	1047.8	-0.36988	0.0013048	0.13674	
184.58	0.090000	15.212	0.065736	88.911	88.969	0.51118	0.79254	1.1902	1045.4	-0.36940	0.0012867	0.13646	
185.06	0.090000	15.200	0.065790	89.477	89.535	0.51424	0.79272	1.1906	1043.0	-0.36892	0.0012691	0.13619	
185.53	0.090000	15.187	0.065844	90.043	90.101	0.51729	0.79291	1.1909	1040.6	-0.36843	0.0012518	0.13591	
186.01	0.090000	15.175	0.065898	90.609	90.667	0.52034	0.79310	1.1913	1038.2	-0.36794	0.0012350	0.13564	
186.48	0.090000	15.162	0.065952	91.175	91.233	0.52338	0.79330	1.1917	1035.8	-0.36744	0.0012185	0.13537	
186.96	0.090000	15.150	0.066007	91.741	91.800	0.52641	0.79351	1.1921	1033.4	-0.36694	0.0012024	0.13509	
187.43	0.090000	15.138	0.066061	92.308	92.366	0.52944	0.79373	1.1925	1031.0	-0.36644	0.0011867	0.13482	
187.91	0.090000	15.125	0.066116	92.875	92.933	0.53246	0.79395	1.1930	1028.6	-0.36592	0.0011712	0.13455	
188.38	0.090000	15.113	0.066170	93.442	93.500	0.53548	0.79418	1.1934	1026.2	-0.36541	0.0011562	0.13427	
188.86	0.090000	15.100	0.066225	94.009	94.067	0.53848	0.79442	1.1938	1023.8	-0.36489	0.0011414	0.13400	
189.34	0.090000	15.088	0.066280	94.576	94.635	0.54148	0.79466	1.1943	1021.4	-0.36436	0.0011270	0.13373	
189.81	0.090000	15.075	0.066335	95.144	95.203	0.54448	0.79491	1.1947	1019.0	-0.36383	0.0011128	0.13346	
190.29	0.090000	15.063	0.066390	95.712	95.771	0.54747	0.79517	1.1952	1016.6	-0.36329	0.0010990	0.13319	
190.76	0.090000	15.050	0.066445	96.280	96.339	0.55045	0.79543	1.1956	1014.2	-0.36275	0.0010854	0.13292	
191.24	0.090000	15.037	0.066500	96.848	96.907	0.55342	0.79570	1.1961	1011.8	-0.36221	0.0010721	0.13265	
191.71	0.090000	15.025	0.066556	97.417	97.475	0.55639	0.79598	1.1965	1009.4	-0.36166	0.0010591	0.13238	
192.19	0.090000	15.012	0.066612	97.986	98.044	0.55936	0.79626	1.1970	1007.0	-0.36110	0.0010464	0.13212	
192.66	0.090000	15.000	0.066667	98.554	98.613	0.56231	0.79654	1.1975	1004.6	-0.36054	0.0010339	0.13185	
193.14	0.090000	14.987	0.066723	99.124	99.183	0.56526	0.79683	1.1980	1002.3	-0.35998	0.0010216	0.13158	
193.61	0.090000	14.975	0.066779	99.693	99.752	0.56821	0.79713	1.1985	999.87	-0.35941	0.0010096	0.13132	
194.09	0.090000	14.962	0.066835	100.26	100.32	0.57115	0.79743	1.1990	997.48	-0.35884	0.00099777	0.13105	
194.56	0.090000	14.950	0.066891	100.83	100.89	0.57408	0.79774	1.1995	995.10	-0.35826	0.00098621	0.13078	
195.04	0.090000	14.937	0.066948	101.40	101.46	0.57701	0.79805	1.2000	992.72	-0.35767	0.00097486	0.13052	
195.51	0.090000	14.924	0.067004	101.97	102.03	0.57993	0.79837	1.2005	990.35	-0.35709	0.00096372	0.13025	
195.99	0.090000	14.912	0.067061	102.54	102.60	0.58284	0.79869	1.2010	987.97	-0.35649	0.00095279	0.12999	
196.46	0.090000	14.899	0.067118	103.11	103.17	0.58575	0.79902	1.2016	985.60	-0.35590	0.00094206	0.12972	
196.94	0.090000	14.887	0.067174	103.69	103.74	0.58866	0.79935	1.2021	983.23	-0.35530	0.00093153	0.12946	
197.41	0.090000	14.874	0.067231	104.26	104.32	0.59156	0.79968	1.2026	980.85	-0.35469	0.00092119	0.12920	
197.89	0.090000	14.861	0.067289	104.83	104.89	0.59445	0.80002	1.2032	978.49	-0.35408	0.00091104	0.12894	
198.36	0.090000	14.849	0.067346	105.40	105.46	0.59733	0.80037	1.2037	976.12	-0.35346	0.00090107	0.12867	
198.84	0.090000	14.836	0.067403	105.97	106.03	0.60022	0.80071	1.2043	973.75	-0.35284	0.00089127	0.12841	
199.32	0.090000	14.823	0.067461	106.55	106.60	0.60309	0.80107	1.2048	971.39	-0.35222	0.00088165	0.12815	
199.79	0.090000	14.811	0.067519	107.12	107.18	0.60596	0.80142	1.2054	969.03	-0.35159	0.00087220	0.12789	
200.27	0.090000	14.798	0.067576	107.69	107.75	0.60883	0.80178	1.2060	966.67	-0.35095	0.00086290	0.12763	
200.74	0.090000	14.785	0.067634	108.26	108.32	0.61169	0.80215	1.2065	964.31	-0.35032	0.00085377	0.12737	
201.22	0.090000	14.773	0.067692	108.84	108.90	0.61454	0.80251	1.2071	961.95	-0.34967	0.00084480	0.12711	
201.69	0.090000	14.760	0.067751	109.41	109.47	0.61739	0.80288	1.2077	959.60	-0.34902	0.00083597	0.12685	
202.17	0.090000	14.747	0.067809	109.99	110.05	0.62023	0.80326	1.2083	957.24	-0.34837	0.00082730	0.12659	
202.64	0.090000	14.735	0.067867	110.56	110.62	0.62307	0.80364	1.2089	954.89	-0.34771	0.00081876	0.12633	
203.12	0.090000	14.722	0.067926	111.13	111.19	0.62590	0.80402	1.2095	952.54	-0.34705	0.00081037	0.12608	
203.59	0.090000	14.709	0.067985	111.71	111.77	0.62873	0.80440	1.2101	950.19	-0.34638	0.00080212	0.12582	
204.07	0.090000	14.696	0.068044	112.28	112.34	0.63155	0.80479	1.2107	947.85	-0.34571	0.00079400	0.12556	
204.54	0.090000	14.684	0.068103	112.86	112.92	0.63437	0.80518	1.2113	945.50	-0.34503	0.00078602	0.12531	
205.02	0.090000	14.671	0.068162	113.44	113.50	0.63718	0.80558	1.2119	943.16	-0.34435	0.00077816	0.12505	
205.49	0.090000	14.658	0.068222	114.01	114.07	0.63999	0.80598	1.2125	940.82	-0.34367	0.00077043	0.12480	
205.97	0.090000	14.645	0.068281	114.59	114.65	0.64279	0.80638	1.2131	938.48	-0.34297	0.00076282	0.12454	
206.44	0.090000	14.633	0.068341	115.16	115.22	0.64558	0.80678	1.2137	936.14	-0.34228	0.00075533	0.12429	
206.92	0.090000	14.620	0.068401	115.74	115.80	0.64838	0.80719	1.2144	933.81	-0.34158	0.00074796	0.12403	
207.39	0.090000	14.607	0.068461	116.32	116.38	0.65116	0.80760	1.2150	931.47	-0.34087	0.00074070	0.12378	
207.87	0.090000	14.594	0.068521	116.90	116.96	0.65394	0.80801	1.2156	929.14	-0.34016	0.00073355	0.12352	
208.35	0.090000	14.581	0.068581	117.47	117.53	0.65672	0.80842	1.2163	926.81	-0.33944	0.00072652	0.12327	
208.82	0.090000	14.568	0.068641	118.05	118.11	0.65949	0.80884	1.2169	924.48	-0.33872	0.00071959	0.12302	
209.30	0.090000	14.556	0.068702	118.63	118.69	0.66226	0.80926	1.2175	922.15	-0.33800	0.00071276	0.12277	
209.77	0.090000	14.543	0.068763	119.21	119.27	0.66502	0.80968	1.2182	919.83	-0.33727	0.00070604	0.12252	
210.25	0.090000	14.530	0.068824	119.79	119.85	0.66778	0.81011	1.2188	917.51	-0.33653	0.00069942	0.12226	
210.72	0.090000	14.517	0.068885	120.37	120.43	0.67053	0.81054	1.2195	915.18	-0.33579	0.00069289	0.12201	
211.20	0.090000	14.504	0.068946	120.95	121.01	0.67328	0.81097	1.2202	912.86	-0.33504	0.00068647	0.12176	
211.67	0.090000	14.491	0.069007	121.53	121.59	0.67602	0.81140	1.2208	910.55	-0.33429	0.00068013	0.12151	
212.15	0.090000	14.478	0.069069	122.11	122.17	0.67876	0.81183	1.2215	908.23	-0.33354	0.00067389	0.12126	
212.62	0.090000	14.465	0.069130	122.69	122.75	0.68150	0.81227	1.2222	905.92	-0.33277	0.00066774	0.12101	
213.10	0.090000	14.452	0.069192	123.27	123.33	0.68423	0.81271	1.2228	903.60	-0.33201	0.00066168	0.12077	
213.57	0.090000	14.440	0.069254	123.85	123.91	0.68695	0.81315	1.2235	901.29	-0.33123	0.00065570	0.12052	
214.05	0.090000	14.427	0.069316	124.43	124.49	0.68967	0.81360	1.2242	898.98	-0.33046	0.00064981	0.12027	
214.52	0.090000	14.414	0.069379	125.01	125.08	0.69239	0.81404	1.2249	896.67	-0.32967	0.00064400	0.12002	
215.00	0.090000	14.401	0.069441	125.60	125.66	0.69510	0.81449	1.2256	894.37	-0.32888	0.00063827	0.11977	
215.47	0.090000	14.388	0.069504	126.18	126.24	0.69781	0.81494	1.2263	892.06	-0.32809	0.00063263	0.11953	
215.95	0.090000	14.375	0.069567	126.76	126.82	0.70051	0.81539	1.2270	889.76	-0.32729	0.00062706	0.11928	
216.42	0.090000	14.362	0.069630	127.34	127.41	0.70321	0.81585	1.2277	887.46	-0.32649	0.00062157	0.11904	
216.90	0.090000	14.349	0.069693	127.93	127.99	0.70590	0.81630	1.2284	885.16	-0.32568	0.00061615	0.11879	
217.37	0.090000	14.336	0.069756	128.51	128.57	0.70859	0.81676	1.2291	882.86	-0.32486	0.00061080	0.11854	
217.85	0.090000	14.323	0.069820	129.10	129.16	0.71127	0.81722	1.2298	880.57	-0.32404	0.00060553	0.11830	
218.33	0.090000	14.310	0.069884	129.68	129.74	0.71395	0.81768	1.2305	878.27	-0.32321	0.00060033	0.11805	
218.80	0.090000	14.296	0.069947	130.27	130.33	0.71663	0.81814	1.2312	875.98	-0.32238	0.00059520	0.11781	
219.28	0.090000	14.283	0.070012	130.85	130.91	0.71930	0.81861	1.2319	873.69	-0.32154	0.00059013	0.11757	
219.75	0.090000	14.270	0.070076	131.44	131.50	0.72197	0.81907	1.2327	871.40	-0.32069	0.00058514	0.11732	
220.23	0.090000	14.257	0.070140	132.02	132.08	0.72463	0.81954	1.2334	869.11	-0.31984	0.00058021	0.11708	
220.70	0.090000	14.244	0.070205	132.61	132.67	0.72729	0.82001	1.2341	866.82	-0.31899	0.00057534	0.11684	
221.18	0.090000	14.231	0.070270	133.20	133.26	0.72995	0.82048	1.2349	864.54	-0.31812	0.00057053	0.11660	
221.65	0.090000	14.218	0.070334	133.78	133.84	0.73260	0.82096	1.2356	862.25	-0.31726	0.00056579	0.11635	
222.13	0.090000	14.205	0.070400	134.37	134.43	0.73525	0.82143	1.2363	859.97	-0.31638	0.00056111	0.11611	
222.60	0.090000	14.191	0.070465	134.96	135.02	0.73789	0.82191	1.2371	857.69	-0.31550	0.00055649	0.11587	
223.08	0.090000	14.178	0.070530	135.55	135.61	0.74053	0.82239	1.2378	855.41	-0.31461	0.00055193	0.11563	
223.55	0.090000	14.165	0.070596	136.13	136.20	0.74317	0.82287	1.2386	853.13	-0.31372	0.00054742	0.11539	
224.03	0.090000	14.152	0.070662	136.72	136.79	0.74580	0.82335	1.2393	850.86	-0.31282	0.00054297	0.11515	
224.50	0.090000	14.139	0.070728	137.31	137.37	0.74842	0.82383	1.2401	848.58	-0.31191	0.00053857	0.11491	
224.98	0.090000	14.125	0.070794	137.90	137.96	0.75105	0.82431	1.2409	846.31	-0.31100	0.00053423	0.11467	
225.45	0.090000	14.112	0.070861	138.49	138.55	0.75367	0.82480	1.2416	844.04	-0.31008	0.00052995	0.11443	
225.93	0.090000	14.099	0.070928	139.08	139.14	0.75628	0.82529	1.2424	841.77	-0.30916	0.00052571	0.11419	
226.40	0.090000	14.086	0.070994	139.67	139.73	0.75889	0.82577	1.2432	839.50	-0.30823	0.00052153	0.11395	
226.88	0.090000	14.072	0.071061	140.26	140.33	0.76150	0.82626	1.2440	837.23	-0.30729	0.00051740	0.11372	
227.36	0.090000	14.059	0.071129	140.85	140.92	0.76410	0.82675	1.2447	834.96	-0.30634	0.00051332	0.11348	
227.83	0.090000	14.046	0.071196	141.45	141.51	0.76670	0.82725	1.2455	832.70	-0.30539	0.00050928	0.11324	
228.31	0.090000	14.032	0.071264	142.04	142.10	0.76930	0.82774	1.2463	830.44	-0.30443	0.00050530	0.11301	
228.78	0.090000	14.019	0.071332	142.63	142.69	0.77189	0.82824	1.2471	828.17	-0.30346	0.00050136	0.11277	
229.26	0.090000	14.006	0.071400	143.22	143.29	0.77448	0.82873	1.2479	825.91	-0.30249	0.00049747	0.11253	
229.73	0.090000	13.992	0.071468	143.82	143.88	0.77707	0.82923	1.2487	823.65	-0.30151	0.00049362	0.11230	
230.21	0.090000	13.979	0.071537	144.41	144.47	0.77965	0.82973	1.2495	821.39	-0.30052	0.00048982	0.11206	
230.68	0.090000	13.965	0.071605	145.00	145.07	0.78223	0.83023	1.2503	819.14	-0.29953	0.00048606	0.11183	
231.16	0.090000	13.952	0.071674	145.60	145.66	0.78480	0.83073	1.2511	816.88	-0.29853	0.00048234	0.11159	
231.63	0.090000	13.939	0.071743	146.19	146.26	0.78737	0.83123	1.2519	814.63	-0.29752	0.00047867	0.11136	
232.11	0.090000	13.925	0.071813	146.79	146.85	0.78994	0.83174	1.2527	812.37	-0.29650	0.00047504	0.11112	
232.58	0.090000	13.912	0.071882	147.38	147.45	0.79250	0.83224	1.2536	810.12	-0.29548	0.00047145	0.11089	
233.06	0.090000	13.898	0.071952	147.98	148.04	0.79506	0.83275	1.2544	807.87	-0.29445	0.00046790	0.11065	
233.53	0.090000	13.885	0.072022	148.58	148.64	0.79762	0.83325	1.2552	805.62	-0.29341	0.00046439	0.11042	
234.01	0.090000	13.871	0.072092	149.17	149.24	0.80017	0.83376	1.2561	803.37	-0.29236	0.00046092	0.11019	
234.48	0.090000	13.858	0.072163	149.77	149.83	0.80272	0.83427	1.2569	801.12	-0.29130	0.00045749	0.10996	
234.96	0.090000	13.844	0.072233	150.37	150.43	0.80526	0.83478	1.2577	798.87	-0.29024	0.00045410	0.10972	
235.43	0.090000	13.830	0.072304	150.97	151.03	0.80781	0.83529	1.2586	796.63	-0.28917	0.00045074	0.10949	
235.91	0.090000	13.817	0.072375	151.56	151.63	0.81035	0.83581	1.2594	794.38	-0.28809	0.00044742	0.10926	
236.38	0.090000	13.803	0.072446	152.16	152.23	0.81288	0.83632	1.2603	792.14	-0.28700	0.00044414	0.10903	
236.86	0.090000	13.790	0.072518	152.76	152.83	0.81541	0.83684	1.2611	789.90	-0.28591	0.00044089	0.10880	
237.34	0.090000	13.776	0.072590	153.36	153.42	0.81794	0.83735	1.2620	787.65	-0.28480	0.00043768	0.10857	
237.81	0.090000	13.762	0.072662	153.96	154.02	0.82047	0.83787	1.2629	785.41	-0.28369	0.00043450	0.10834	
238.29	0.090000	13.749	0.072734	154.56	154.63	0.82299	0.83839	1.2637	783.17	-0.28257	0.00043135	0.10811	
238.76	0.090000	13.735	0.072807	155.16	155.23	0.82551	0.83891	1.2646	780.94	-0.28144	0.00042824	0.10788	
239.24	0.090000	13.721	0.072879	155.76	155.83	0.82802	0.83943	1.2655	778.70	-0.28030	0.00042516	0.10765	
239.71	0.090000	13.708	0.072952	156.36	156.43	0.83054	0.83995	1.2664	776.46	-0.27915	0.00042211	0.10742	
240.19	0.090000	13.694	0.073026	156.97	157.03	0.83305	0.84047	1.2672	774.22	-0.27800	0.00041910	0.10719	
240.66	0.090000	13.680	0.073099	157.57	157.63	0.83555	0.84100	1.2681	771.99	-0.27683	0.00041611	0.10696	
241.14	0.090000	13.666	0.073173	158.17	158.24	0.83805	0.84152	1.2690	769.75	-0.27566	0.00041316	0.10673	
241.61	0.090000	13.652	0.073247	158.77	158.84	0.84055	0.84205	1.2699	767.52	-0.27447	0.00041023	0.10650	
242.09	0.090000	13.639	0.073321	159.38	159.44	0.84305	0.84257	1.2708	765.29	-0.27328	0.00040734	0.10628	
242.56	0.090000	13.625	0.073396	159.98	160.05	0.84554	0.84310	1.2717	763.06	-0.27208	0.00040447	0.10605	
243.04	0.090000	13.611	0.073470	160.59	160.65	0.84803	0.84363	1.2726	760.82	-0.27086	0.00040164	0.10582	
243.51	0.090000	13.597	0.073545	161.19	161.26	0.85052	0.84416	1.2736	758.59	-0.26964	0.00039883	0.10559	
243.99	0.090000	13.583	0.073621	161.80	161.86	0.85300	0.84469	1.2745	756.36	-0.26841	0.00039605	0.10537	
244.46	0.090000	13.569	0.073696	162.40	162.47	0.85549	0.84522	1.2754	754.13	-0.26717	0.00039330	0.10514	
244.52	0.090000	13.568	0.073705	162.47	162.54	0.85576	0.84528	1.2755	753.89	-0.26703	0.00039300	0.10511	
244.52	0.090000	0.046091	21.696	362.04	381.18	1.7499	0.68167	0.78545	145.35	47.756	9.6859e-06	0.0091028	
244.94	0.090000	0.045998	21.740	362.33	381.51	1.7513	0.68197	0.78549	145.50	47.337	9.7032e-06	0.0091365	
245.41	0.090000	0.045893	21.790	362.66	381.88	1.7528	0.68233	0.78556	145.66	46.875	9.7226e-06	0.0091744	
245.89	0.090000	0.045789	21.839	362.99	382.26	1.7543	0.68271	0.78566	145.83	46.423	9.7419e-06	0.0092123	
246.37	0.090000	0.045686	21.889	363.32	382.63	1.7559	0.68311	0.78578	145.99	45.980	9.7613e-06	0.0092501	
246.84	0.090000	0.045583	21.938	363.65	383.00	1.7574	0.68352	0.78592	146.15	45.545	9.7806e-06	0.0092880	
247.32	0.090000	0.045481	21.987	363.98	383.38	1.7589	0.68394	0.78608	146.31	45.119	9.7999e-06	0.0093259	
247.79	0.090000	0.045380	22.036	364.31	383.75	1.7604	0.68438	0.78627	146.47	44.701	9.8193e-06	0.0093638	
248.27	0.090000	0.045279	22.085	364.64	384.12	1.7619	0.68484	0.78647	146.63	44.291	9.8386e-06	0.0094017	
248.74	0.090000	0.045178	22.134	364.97	384.50	1.7634	0.68530	0.78670	146.79	43.888	9.8579e-06	0.0094396	
249.22	0.090000	0.045079	22.183	365.30	384.87	1.7649	0.68578	0.78694	146.95	43.493	9.8772e-06	0.0094775	
249.69	0.090000	0.044979	22.232	365.63	385.24	1.7664	0.68628	0.78720	147.11	43.106	9.8964e-06	0.0095154	
250.17	0.090000	0.044881	22.281	365.97	385.62	1.7679	0.68678	0.78748	147.27	42.725	9.9157e-06	0.0095533	
250.64	0.090000	0.044783	22.330	366.30	385.99	1.7694	0.68729	0.78777	147.43	42.350	9.9350e-06	0.0095912	
251.12	0.090000	0.044685	22.379	366.63	386.37	1.7709	0.68782	0.78808	147.59	41.983	9.9542e-06	0.0096291	
251.59	0.090000	0.044588	22.428	366.96	386.74	1.7724	0.68835	0.78841	147.74	41.621	9.9735e-06	0.0096670	
252.07	0.090000	0.044492	22.476	367.29	387.12	1.7739	0.68890	0.78875	147.90	41.266	9.9927e-06	0.0097049	
252.54	0.090000	0.044395	22.525	367.62	387.49	1.7753	0.68945	0.78910	148.06	40.917	1.0012e-05	0.0097428	
253.02	0.090000	0.044300	22.573	367.96	387.87	1.7768	0.69002	0.78947	148.21	40.573	1.0031e-05	0.0097807	
253.49	0.090000	0.044205	22.622	368.29	388.24	1.7783	0.69059	0.78984	148.37	40.235	1.0050e-05	0.0098186	
253.97	0.090000	0.044110	22.670	368.62	388.62	1.7798	0.69117	0.79024	148.53	39.903	1.0070e-05	0.0098565	
254.44	0.090000	0.044016	22.719	368.95	388.99	1.7813	0.69176	0.79064	148.68	39.576	1.0089e-05	0.0098945	
254.92	0.090000	0.043923	22.767	369.29	389.37	1.7827	0.69235	0.79105	148.84	39.254	1.0108e-05	0.0099324	
255.39	0.090000	0.043830	22.815	369.62	389.75	1.7842	0.69296	0.79148	148.99	38.936	1.0127e-05	0.0099703	
255.87	0.090000	0.043737	22.864	369.95	390.12	1.7857	0.69357	0.79191	149.14	38.624	1.0146e-05	0.010008	
256.35	0.090000	0.043645	22.912	370.29	390.50	1.7872	0.69419	0.79236	149.30	38.317	1.0165e-05	0.010046	
256.82	0.090000	0.043554	22.960	370.62	390.87	1.7886	0.69481	0.79281	149.45	38.014	1.0185e-05	0.010084	
257.30	0.090000	0.043462	23.008	370.96	391.25	1.7901	0.69544	0.79328	149.60	37.715	1.0204e-05	0.010122	
257.77	0.090000	0.043372	23.056	371.29	391.63	1.7916	0.69607	0.79375	149.76	37.421	1.0223e-05	0.010160	
258.25	0.090000	0.043281	23.105	371.63	392.01	1.7930	0.69672	0.79423	149.91	37.131	1.0242e-05	0.010198	
258.72	0.090000	0.043192	23.153	371.96	392.38	1.7945	0.69736	0.79472	150.06	36.845	1.0261e-05	0.010236	
259.20	0.090000	0.043102	23.201	372.30	392.76	1.7959	0.69802	0.79522	150.21	36.563	1.0280e-05	0.010274	
259.67	0.090000	0.043013	23.249	372.63	393.14	1.7974	0.69867	0.79573	150.37	36.285	1.0299e-05	0.010312	
260.15	0.090000	0.042925	23.296	372.97	393.52	1.7989	0.69933	0.79624	150.52	36.011	1.0318e-05	0.010350	
260.62	0.090000	0.042837	23.344	373.31	393.90	1.8003	0.70000	0.79676	150.67	35.740	1.0337e-05	0.010388	
261.10	0.090000	0.042749	23.392	373.64	394.28	1.8018	0.70067	0.79729	150.82	35.473	1.0356e-05	0.010425	
261.57	0.090000	0.042662	23.440	373.98	394.65	1.8032	0.70135	0.79782	150.97	35.210	1.0375e-05	0.010463	
262.05	0.090000	0.042575	23.488	374.32	395.03	1.8047	0.70203	0.79836	151.12	34.950	1.0395e-05	0.010501	
262.52	0.090000	0.042489	23.536	374.65	395.41	1.8061	0.70271	0.79891	151.27	34.694	1.0414e-05	0.010539	
263.00	0.090000	0.042403	23.583	374.99	395.79	1.8076	0.70340	0.79947	151.42	34.441	1.0433e-05	0.010577	
263.47	0.090000	0.042317	23.631	375.33	396.17	1.8090	0.70409	0.80002	151.57	34.191	1.0452e-05	0.010615	
263.95	0.090000	0.042232	23.679	375.67	396.55	1.8104	0.70479	0.80059	151.72	33.944	1.0471e-05	0.010653	
264.42	0.090000	0.042148	23.726	376.01	396.93	1.8119	0.70549	0.80116	151.86	33.700	1.0490e-05	0.010691	
264.90	0.090000	0.042063	23.774	376.34	397.31	1.8133	0.70619	0.80174	152.01	33.459	1.0509e-05	0.010729	
265.38	0.090000	0.041979	23.821	376.68	397.70	1.8148	0.70689	0.80232	152.16	33.221	1.0528e-05	0.010767	
265.85	0.090000	0.041896	23.869	377.02	398.08	1.8162	0.70760	0.80290	152.31	32.986	1.0547e-05	0.010805	
266.33	0.090000	0.041812	23.916	377.36	398.46	1.8176	0.70831	0.80349	152.46	32.754	1.0566e-05	0.010843	
266.80	0.090000	0.041730	23.964	377.70	398.84	1.8191	0.70903	0.80409	152.60	32.525	1.0585e-05	0.010881	
267.28	0.090000	0.041647	24.011	378.04	399.22	1.8205	0.70975	0.80469	152.75	32.298	1.0604e-05	0.010919	
267.75	0.090000	0.041565	24.059	378.38	399.61	1.8219	0.71047	0.80529	152.90	32.074	1.0623e-05	0.010957	
268.23	0.090000	0.041484	24.106	378.73	399.99	1.8234	0.71119	0.80590	153.04	31.853	1.0642e-05	0.010995	
268.70	0.090000	0.041402	24.153	379.07	400.37	1.8248	0.71191	0.80652	153.19	31.634	1.0660e-05	0.011033	
269.18	0.090000	0.041321	24.201	379.41	400.76	1.8262	0.71264	0.80713	153.34	31.417	1.0679e-05	0.011071	
269.65	0.090000	0.041241	24.248	379.75	401.14	1.8276	0.71337	0.80775	153.48	31.203	1.0698e-05	0.011109	
270.13	0.090000	0.041161	24.295	380.09	401.52	1.8291	0.71410	0.80838	153.63	30.992	1.0717e-05	0.011147	
270.60	0.090000	0.041081	24.342	380.44	401.91	1.8305	0.71484	0.80901	153.77	30.782	1.0736e-05	0.011185	
271.08	0.090000	0.041001	24.390	380.78	402.29	1.8319	0.71557	0.80964	153.92	30.575	1.0755e-05	0.011223	
271.55	0.090000	0.040922	24.437	381.12	402.68	1.8333	0.71631	0.81027	154.06	30.371	1.0774e-05	0.011260	
272.03	0.090000	0.040843	24.484	381.47	403.06	1.8347	0.71705	0.81091	154.20	30.168	1.0793e-05	0.011298	
272.50	0.090000	0.040765	24.531	381.81	403.45	1.8361	0.71779	0.81155	154.35	29.968	1.0812e-05	0.011336	
272.98	0.090000	0.040687	24.578	382.15	403.83	1.8376	0.71853	0.81220	154.49	29.770	1.0831e-05	0.011374	
273.45	0.090000	0.040609	24.625	382.50	404.22	1.8390	0.71928	0.81284	154.64	29.573	1.0850e-05	0.011412	
273.93	0.090000	0.040531	24.672	382.84	404.61	1.8404	0.72003	0.81349	154.78	29.379	1.0868e-05	0.011450	
274.40	0.090000	0.040454	24.719	383.19	404.99	1.8418	0.72078	0.81415	154.92	29.187	1.0887e-05	0.011488	
274.88	0.090000	0.040378	24.766	383.53	405.38	1.8432	0.72153	0.81480	155.07	28.997	1.0906e-05	0.011526	
275.36	0.090000	0.040301	24.813	383.88	405.77	1.8446	0.72228	0.81546	155.21	28.809	1.0925e-05	0.011564	
275.83	0.090000	0.040225	24.860	384.23	406.16	1.8460	0.72303	0.81612	155.35	28.623	1.0944e-05	0.011602	
276.31	0.090000	0.040149	24.907	384.57	406.54	1.8474	0.72379	0.81679	155.49	28.439	1.0963e-05	0.011640	
276.78	0.090000	0.040074	24.954	384.92	406.93	1.8488	0.72454	0.81745	155.64	28.256	1.0982e-05	0.011678	
277.26	0.090000	0.039999	25.001	385.27	407.32	1.8502	0.72530	0.81812	155.78	28.076	1.1000e-05	0.011716	
277.73	0.090000	0.039924	25.048	385.62	407.71	1.8516	0.72606	0.81879	155.92	27.897	1.1019e-05	0.011754	
278.21	0.090000	0.039849	25.095	385.96	408.10	1.8530	0.72682	0.81947	156.06	27.720	1.1038e-05	0.011792	
278.68	0.090000	0.039775	25.141	386.31	408.49	1.8544	0.72758	0.82014	156.20	27.545	1.1057e-05	0.011830	
279.16	0.090000	0.039701	25.188	386.66	408.88	1.8558	0.72834	0.82082	156.34	27.371	1.1076e-05	0.011868	
279.63	0.090000	0.039628	25.235	387.01	409.27	1.8572	0.72910	0.82150	156.48	27.199	1.1094e-05	0.011906	
280.11	0.090000	0.039554	25.282	387.36	409.66	1.8586	0.72987	0.82218	156.62	27.029	1.1113e-05	0.011944	
280.58	0.090000	0.039481	25.328	387.71	410.05	1.8600	0.73063	0.82287	156.76	26.860	1.1132e-05	0.011982	
281.06	0.090000	0.039409	25.375	388.06	410.44	1.8614	0.73140	0.82355	156.90	26.693	1.1151e-05	0.012020	
281.53	0.090000	0.039336	25.422	388.41	410.83	1.8628	0.73217	0.82424	157.04	26.528	1.1170e-05	0.012058	
282.01	0.090000	0.039264	25.469	388.76	411.22	1.8642	0.73293	0.82493	157.18	26.364	1.1188e-05	0.012096	
282.48	0.090000	0.039192	25.515	389.11	411.62	1.8656	0.73370	0.82562	157.32	26.202	1.1207e-05	0.012134	
282.96	0.090000	0.039121	25.562	389.46	412.01	1.8670	0.73447	0.82631	157.46	26.041	1.1226e-05	0.012172	
283.43	0.090000	0.039050	25.608	389.81	412.40	1.8684	0.73524	0.82701	157.60	25.882	1.1245e-05	0.012210	
283.91	0.090000	0.038979	25.655	390.17	412.80	1.8697	0.73602	0.82770	157.74	25.724	1.1263e-05	0.012248	
284.39	0.090000	0.038908	25.702	390.52	413.19	1.8711	0.73679	0.82840	157.88	25.567	1.1282e-05	0.012286	
284.86	0.090000	0.038838	25.748	390.87	413.58	1.8725	0.73756	0.82910	158.02	25.413	1.1301e-05	0.012324	
285.34	0.090000	0.038768	25.795	391.22	413.98	1.8739	0.73833	0.82980	158.15	25.259	1.1319e-05	0.012362	
285.81	0.090000	0.038698	25.841	391.58	414.37	1.8753	0.73911	0.83050	158.29	25.107	1.1338e-05	0.012400	
286.29	0.090000	0.038628	25.888	391.93	414.77	1.8767	0.73988	0.83121	158.43	24.956	1.1357e-05	0.012438	
286.76	0.090000	0.038559	25.934	392.29	415.16	1.8780	0.74066	0.83191	158.57	24.807	1.1376e-05	0.012476	
287.24	0.090000	0.038490	25.981	392.64	415.56	1.8794	0.74144	0.83262	158.70	24.659	1.1394e-05	0.012514	
287.71	0.090000	0.038422	26.027	393.00	415.95	1.8808	0.74221	0.83333	158.84	24.512	1.1413e-05	0.012552	
288.19	0.090000	0.038353	26.073	393.35	416.35	1.8822	0.74299	0.83404	158.98	24.366	1.1432e-05	0.012590	
288.66	0.090000	0.038285	26.120	393.71	416.75	1.8835	0.74377	0.83475	159.11	24.222	1.1450e-05	0.012628	
289.14	0.090000	0.038217	26.166	394.06	417.14	1.8849	0.74455	0.83546	159.25	24.079	1.1469e-05	0.012666	
289.61	0.090000	0.038149	26.213	394.42	417.54	1.8863	0.74533	0.83617	159.39	23.938	1.1488e-05	0.012704	
290.09	0.090000	0.038082	26.259	394.78	417.94	1.8877	0.74611	0.83689	159.52	23.797	1.1506e-05	0.012742	
290.56	0.090000	0.038015	26.305	395.13	418.34	1.8890	0.74689	0.83760	159.66	23.658	1.1525e-05	0.012780	
291.04	0.090000	0.037948	26.352	395.49	418.73	1.8904	0.74767	0.83832	159.80	23.520	1.1544e-05	0.012818	
291.51	0.090000	0.037882	26.398	395.85	419.13	1.8918	0.74845	0.83904	159.93	23.383	1.1562e-05	0.012856	
291.99	0.090000	0.037815	26.444	396.21	419.53	1.8931	0.74923	0.83975	160.07	23.247	1.1581e-05	0.012894	
292.46	0.090000	0.037749	26.491	396.56	419.93	1.8945	0.75001	0.84047	160.20	23.113	1.1600e-05	0.012932	
292.94	0.090000	0.037683	26.537	396.92	420.33	1.8959	0.75079	0.84119	160.34	22.980	1.1618e-05	0.012970	
293.41	0.090000	0.037618	26.583	397.28	420.73	1.8972	0.75157	0.84192	160.47	22.847	1.1637e-05	0.013008	
293.89	0.090000	0.037553	26.629	397.64	421.13	1.8986	0.75236	0.84264	160.61	22.716	1.1656e-05	0.013046	
294.37	0.090000	0.037488	26.676	398.00	421.53	1.9000	0.75314	0.84336	160.74	22.586	1.1674e-05	0.013084	
294.84	0.090000	0.037423	26.722	398.36	421.93	1.9013	0.75392	0.84409	160.88	22.457	1.1693e-05	0.013122	
295.32	0.090000	0.037358	26.768	398.72	422.33	1.9027	0.75471	0.84481	161.01	22.330	1.1711e-05	0.013160	
295.79	0.090000	0.037294	26.814	399.08	422.73	1.9040	0.75549	0.84554	161.14	22.203	1.1730e-05	0.013198	
296.27	0.090000	0.037230	26.860	399.44	423.14	1.9054	0.75628	0.84626	161.28	22.077	1.1749e-05	0.013236	
296.74	0.090000	0.037166	26.906	399.81	423.54	1.9068	0.75706	0.84699	161.41	21.952	1.1767e-05	0.013274	
297.22	0.090000	0.037102	26.952	400.17	423.94	1.9081	0.75784	0.84772	161.54	21.829	1.1786e-05	0.013312	
297.69	0.090000	0.037039	26.999	400.53	424.35	1.9095	0.75863	0.84845	161.68	21.706	1.1804e-05	0.013350	
298.17	0.090000	0.036976	27.045	400.89	424.75	1.9108	0.75941	0.84918	161.81	21.584	1.1823e-05	0.013388	
298.64	0.090000	0.036913	27.091	401.26	425.15	1.9122	0.76020	0.84991	161.94	21.464	1.1842e-05	0.013426	
299.12	0.090000	0.036850	27.137	401.62	425.56	1.9135	0.76099	0.85064	162.08	21.344	1.1860e-05	0.013464	
299.59	0.090000	0.036788	27.183	401.98	425.96	1.9149	0.76177	0.85138	162.21	21.225	1.1879e-05	0.013502	
300.07	0.090000	0.036726	27.229	402.35	426.37	1.9162	0.76256	0.85211	162.34	21.107	1.1897e-05	0.013540	
300.54	0.090000	0.036664	27.275	402.71	426.77	1.9176	0.76334	0.85284	162.47	20.991	1.1916e-05	0.013578	
301.02	0.090000	0.036602	27.321	403.08	427.18	1.9189	0.76413	0.85358	162.61	20.875	1.1934e-05	0.013616	
301.49	0.090000	0.036540	27.367	403.44	427.58	1.9203	0.76492	0.85431	162.74	20.760	1.1953e-05	0.013654	
301.97	0.090000	0.036479	27.413	403.81	427.99	1.9216	0.76570	0.85505	162.87	20.646	1.1971e-05	0.013692	
302.44	0.090000	0.036418	27.459	404.17	428.39	1.9230	0.76649	0.85578	163.00	20.533	1.1990e-05	0.013730	
302.92	0.090000	0.036357	27.505	404.54	428.80	1.9243	0.76728	0.85652	163.13	20.420	1.2008e-05	0.013768	
303.40	0.090000	0.036297	27.551	404.91	429.21	1.9257	0.76806	0.85726	163.26	20.309	1.2027e-05	0.013806	
303.87	0.090000	0.036236	27.597	405.27	429.62	1.9270	0.76885	0.85799	163.40	20.198	1.2046e-05	0.013844	
304.35	0.090000	0.036176	27.643	405.64	430.02	1.9283	0.76964	0.85873	163.53	20.089	1.2064e-05	0.013882	
304.82	0.090000	0.036116	27.689	406.01	430.43	1.9297	0.77043	0.85947	163.66	19.980	1.2083e-05	0.013920	
305.30	0.090000	0.036056	27.734	406.38	430.84	1.9310	0.77121	0.86021	163.79	19.872	1.2101e-05	0.013958	
305.77	0.090000	0.035997	27.780	406.75	431.25	1.9324	0.77200	0.86095	163.92	19.765	1.2120e-05	0.013996	
306.25	0.090000	0.035937	27.826	407.11	431.66	1.9337	0.77279	0.86169	164.05	19.659	1.2138e-05	0.014034	
306.72	0.090000	0.035878	27.872	407.48	432.07	1.9350	0.77358	0.86243	164.18	19.553	1.2157e-05	0.014072	
307.20	0.090000	0.035819	27.918	407.85	432.48	1.9364	0.77436	0.86317	164.31	19.449	1.2175e-05	0.014110	
307.67	0.090000	0.035761	27.964	408.22	432.89	1.9377	0.77515	0.86392	164.44	19.345	1.2194e-05	0.014148	
308.15	0.090000	0.035702	28.010	408.59	433.30	1.9390	0.77594	0.86466	164.57	19.242	1.2212e-05	0.014186	
308.62	0.090000	0.035644	28.055	408.96	433.71	1.9404	0.77673	0.86540	164.70	19.140	1.2230e-05	0.014224	
309.10	0.090000	0.035586	28.101	409.34	434.12	1.9417	0.77751	0.86614	164.83	19.038	1.2249e-05	0.014262	
309.57	0.090000	0.035528	28.147	409.71	434.53	1.9430	0.77830	0.86689	164.96	18.937	1.2267e-05	0.014300	
310.05	0.090000	0.035470	28.193	410.08	434.95	1.9444	0.77909	0.86763	165.09	18.838	1.2286e-05	0.014338	
310.52	0.090000	0.035413	28.239	410.45	435.36	1.9457	0.77988	0.86838	165.21	18.738	1.2304e-05	0.014376	
311.00	0.090000	0.035355	28.284	410.82	435.77	1.9470	0.78066	0.86912	165.34	18.640	1.2323e-05	0.014414	
311.47	0.090000	0.035298	28.330	411.20	436.19	1.9483	0.78145	0.86987	165.47	18.542	1.2341e-05	0.014452	
311.95	0.090000	0.035241	28.376	411.57	436.60	1.9497	0.78224	0.87061	165.60	18.445	1.2360e-05	0.014490	
312.42	0.090000	0.035185	28.421	411.94	437.01	1.9510	0.78303	0.87136	165.73	18.349	1.2378e-05	0.014528	
312.90	0.090000	0.035128	28.467	412.32	437.43	1.9523	0.78382	0.87210	165.86	18.253	1.2397e-05	0.014566	
313.38	0.090000	0.035072	28.513	412.69	437.84	1.9536	0.78460	0.87285	165.99	18.159	1.2415e-05	0.014604	
313.85	0.090000	0.035016	28.559	413.07	438.26	1.9550	0.78539	0.87360	166.11	18.065	1.2433e-05	0.014642	
314.33	0.090000	0.034960	28.604	413.44	438.67	1.9563	0.78618	0.87434	166.24	17.971	1.2452e-05	0.014680	
314.80	0.090000	0.034904	28.650	413.82	439.09	1.9576	0.78697	0.87509	166.37	17.878	1.2470e-05	0.014718	
315.28	0.090000	0.034849	28.696	414.19	439.50	1.9589	0.78775	0.87584	166.50	17.786	1.2489e-05	0.014756	
315.75	0.090000	0.034793	28.741	414.57	439.92	1.9603	0.78854	0.87659	166.62	17.695	1.2507e-05	0.014794	
316.23	0.090000	0.034738	28.787	414.95	440.34	1.9616	0.78933	0.87734	166.75	17.604	1.2525e-05	0.014832	
316.70	0.090000	0.034683	28.832	415.32	440.75	1.9629	0.79012	0.87808	166.88	17.514	1.2544e-05	0.014870	
317.18	0.090000	0.034628	28.878	415.70	441.17	1.9642	0.79090	0.87883	167.01	17.425	1.2562e-05	0.014908	
317.65	0.090000	0.034574	28.924	416.08	441.59	1.9655	0.79169	0.87958	167.13	17.336	1.2581e-05	0.014946	
318.13	0.090000	0.034519	28.969	416.45	442.01	1.9668	0.79248	0.88033	167.26	17.248	1.2599e-05	0.014984	
318.60	0.090000	0.034465	29.015	416.83	442.43	1.9682	0.79326	0.88108	167.39	17.161	1.2617e-05	0.015022	
319.08	0.090000	0.034411	29.060	417.21	442.85	1.9695	0.79405	0.88183	167.51	17.074	1.2636e-05	0.015060	
319.55	0.090000	0.034357	29.106	417.59	443.26	1.9708	0.79484	0.88258	167.64	16.988	1.2654e-05	0.015098	
320.03	0.090000	0.034303	29.152	417.97	443.68	1.9721	0.79562	0.88333	167.76	16.902	1.2673e-05	0.015136	
320.50	0.090000	0.034250	29.197	418.35	444.10	1.9734	0.79641	0.88408	167.89	16.817	1.2691e-05	0.015174	
320.98	0.090000	0.034197	29.243	418.73	444.52	1.9747	0.79720	0.88483	168.02	16.733	1.2709e-05	0.015212	
321.45	0.090000	0.034143	29.288	419.11	444.95	1.9760	0.79798	0.88558	168.14	16.649	1.2728e-05	0.015250	
321.93	0.090000	0.034090	29.334	419.49	445.37	1.9773	0.79877	0.88633	168.27	16.566	1.2746e-05	0.015288	
322.41	0.090000	0.034038	29.379	419.87	445.79	1.9786	0.79956	0.88708	168.39	16.483	1.2764e-05	0.015326	
322.88	0.090000	0.033985	29.425	420.25	446.21	1.9800	0.80034	0.88784	168.52	16.401	1.2783e-05	0.015364	
323.36	0.090000	0.033933	29.470	420.64	446.63	1.9813	0.80113	0.88859	168.64	16.320	1.2801e-05	0.015402	
323.83	0.090000	0.033880	29.516	421.02	447.05	1.9826	0.80191	0.88934	168.77	16.239	1.2819e-05	0.015440	
324.31	0.090000	0.033828	29.561	421.40	447.48	1.9839	0.80270	0.89009	168.89	16.159	1.2838e-05	0.015478	
324.78	0.090000	0.033776	29.607	421.78	447.90	1.9852	0.80348	0.89084	169.02	16.079	1.2856e-05	0.015516	
325.26	0.090000	0.033724	29.652	422.17	448.32	1.9865	0.80427	0.89159	169.14	16.000	1.2874e-05	0.015554	
325.73	0.090000	0.033673	29.698	422.55	448.75	1.9878	0.80505	0.89235	169.27	15.921	1.2893e-05	0.015592	
326.21	0.090000	0.033621	29.743	422.94	449.17	1.9891	0.80584	0.89310	169.39	15.843	1.2911e-05	0.015630	
326.68	0.090000	0.033570	29.788	423.32	449.60	1.9904	0.80662	0.89385	169.52	15.766	1.2929e-05	0.015668	
327.16	0.090000	0.033519	29.834	423.71	450.02	1.9917	0.80741	0.89460	169.64	15.689	1.2948e-05	0.015706	
327.63	0.090000	0.033468	29.879	424.09	450.45	1.9930	0.80819	0.89536	169.76	15.613	1.2966e-05	0.015744	
328.11	0.090000	0.033417	29.925	424.48	450.87	1.9943	0.80898	0.89611	169.89	15.537	1.2984e-05	0.015782	
328.58	0.090000	0.033367	29.970	424.86	451.30	1.9956	0.80976	0.89686	170.01	15.461	1.3003e-05	0.015820	
329.06	0.090000	0.033316	30.015	425.25	451.73	1.9969	0.81055	0.89761	170.14	15.386	1.3021e-05	0.015858	
329.53	0.090000	0.033266	30.061	425.64	452.15	1.9982	0.81133	0.89837	170.26	15.312	1.3039e-05	0.015896	
330.01	0.090000	0.033216	30.106	426.02	452.58	1.9995	0.81212	0.89912	170.38	15.238	1.3057e-05	0.015934	
330.48	0.090000	0.033166	30.152	426.41	453.01	2.0008	0.81290	0.89987	170.51	15.165	1.3076e-05	0.015972	
330.96	0.090000	0.033116	30.197	426.80	453.43	2.0021	0.81368	0.90063	170.63	15.092	1.3094e-05	0.016010	
331.44	0.090000	0.033066	30.242	427.19	453.86	2.0033	0.81447	0.90138	170.75	15.020	1.3112e-05	0.016049	
331.91	0.090000	0.033017	30.288	427.58	454.29	2.0046	0.81525	0.90213	170.87	14.948	1.3131e-05	0.016087	
332.39	0.090000	0.032967	30.333	427.96	454.72	2.0059	0.81603	0.90289	171.00	14.877	1.3149e-05	0.016125	
332.86	0.090000	0.032918	30.378	428.35	455.15	2.0072	0.81682	0.90364	171.12	14.806	1.3167e-05	0.016163	
333.34	0.090000	0.032869	30.424	428.74	455.58	2.0085	0.81760	0.90439	171.24	14.735	1.3185e-05	0.016201	
333.81	0.090000	0.032820	30.469	429.13	456.01	2.0098	0.81838	0.90515	171.36	14.665	1.3204e-05	0.016239	
334.29	0.090000	0.032772	30.514	429.52	456.44	2.0111	0.81916	0.90590	171.49	14.596	1.3222e-05	0.016277	
334.76	0.090000	0.032723	30.560	429.91	456.87	2.0124	0.81994	0.90666	171.61	14.527	1.3240e-05	0.016315	
335.24	0.090000	0.032675	30.605	430.31	457.30	2.0137	0.82073	0.90741	171.73	14.459	1.3258e-05	0.016353	
335.71	0.090000	0.032626	30.650	430.70	457.73	2.0149	0.82151	0.90816	171.85	14.391	1.3277e-05	0.016391	
336.19	0.090000	0.032578	30.695	431.09	458.16	2.0162	0.82229	0.90892	171.98	14.323	1.3295e-05	0.016429	
336.66	0.090000	0.032530	30.741	431.48	458.60	2.0175	0.82307	0.90967	172.10	14.256	1.3313e-05	0.016467	
337.14	0.090000	0.032482	30.786	431.87	459.03	2.0188	0.82385	0.91042	172.22	14.189	1.3331e-05	0.016505	
337.61	0.090000	0.032435	30.831	432.27	459.46	2.0201	0.82463	0.91118	172.34	14.123	1.3350e-05	0.016543	
338.09	0.090000	0.032387	30.876	432.66	459.90	2.0214	0.82541	0.91193	172.46	14.057	1.3368e-05	0.016581	
338.56	0.090000	0.032340	30.922	433.05	460.33	2.0226	0.82620	0.91269	172.58	13.992	1.3386e-05	0.016619	
339.04	0.090000	0.032293	30.967	433.45	460.76	2.0239	0.82698	0.91344	172.70	13.927	1.3404e-05	0.016657	
339.51	0.090000	0.032245	31.012	433.84	461.20	2.0252	0.82776	0.91419	172.82	13.862	1.3422e-05	0.016695	
339.99	0.090000	0.032199	31.057	434.24	461.63	2.0265	0.82854	0.91495	172.95	13.798	1.3441e-05	0.016733	
340.46	0.090000	0.032152	31.103	434.63	462.07	2.0278	0.82932	0.91570	173.07	13.734	1.3459e-05	0.016771	
340.94	0.090000	0.032105	31.148	435.03	462.50	2.0290	0.83010	0.91645	173.19	13.671	1.3477e-05	0.016809	
341.42	0.090000	0.032059	31.193	435.42	462.94	2.0303	0.83087	0.91721	173.31	13.608	1.3495e-05	0.016847	
341.89	0.090000	0.032012	31.238	435.82	463.37	2.0316	0.83165	0.91796	173.43	13.546	1.3513e-05	0.016885	
342.37	0.090000	0.031966	31.283	436.22	463.81	2.0329	0.83243	0.91872	173.55	13.484	1.3532e-05	0.016923	
342.84	0.090000	0.031920	31.328	436.61	464.25	2.0341	0.83321	0.91947	173.67	13.422	1.3550e-05	0.016961	
343.32	0.090000	0.031874	31.374	437.01	464.68	2.0354	0.83399	0.92022	173.79	13.361	1.3568e-05	0.016999	
343.79	0.090000	0.031828	31.419	437.41	465.12	2.0367	0.83477	0.92098	173.91	13.300	1.3586e-05	0.017037	
344.27	0.090000	0.031782	31.464	437.81	465.56	2.0380	0.83555	0.92173	174.03	13.240	1.3604e-05	0.017075	
344.74	0.090000	0.031737	31.509	438.20	466.00	2.0392	0.83632	0.92248	174.15	13.180	1.3622e-05	0.017113	
345.22	0.090000	0.031691	31.554	438.60	466.44	2.0405	0.83710	0.92324	174.27	13.120	1.3641e-05	0.017151	
345.69	0.090000	0.031646	31.599	439.00	466.88	2.0418	0.83788	0.92399	174.39	13.061	1.3659e-05	0.017189	
346.17	0.090000	0.031601	31.645	439.40	467.31	2.0430	0.83866	0.92474	174.51	13.002	1.3677e-05	0.017227	
346.64	0.090000	0.031556	31.690	439.80	467.75	2.0443	0.83943	0.92550	174.63	12.943	1.3695e-05	0.017265	
347.12	0.090000	0.031511	31.735	440.20	468.19	2.0456	0.84021	0.92625	174.75	12.885	1.3713e-05	0.017303	
347.59	0.090000	0.031466	31.780	440.60	468.63	2.0469	0.84099	0.92700	174.86	12.827	1.3731e-05	0.017341	
348.07	0.090000	0.031422	31.825	441.00	469.08	2.0481	0.84176	0.92776	174.98	12.770	1.3750e-05	0.017379	
348.54	0.090000	0.031377	31.870	441.40	469.52	2.0494	0.84254	0.92851	175.10	12.713	1.3768e-05	0.017417	
349.02	0.090000	0.031333	31.915	441.81	469.96	2.0507	0.84332	0.92926	175.22	12.656	1.3786e-05	0.017455	
349.49	0.090000	0.031289	31.960	442.21	470.40	2.0519	0.84409	0.93002	175.34	12.600	1.3804e-05	0.017493	
349.97	0.090000	0.031245	32.005	442.61	470.84	2.0532	0.84487	0.93077	175.46	12.544	1.3822e-05	0.017531	
350.45	0.090000	0.031201	32.050	443.01	471.28	2.0544	0.84564	0.93152	175.58	12.488	1.3840e-05	0.017569	
350.92	0.090000	0.031157	32.095	443.42	471.73	2.0557	0.84642	0.93228	175.70	12.433	1.3858e-05	0.017608	
351.40	0.090000	0.031113	32.141	443.82	472.17	2.0570	0.84719	0.93303	175.81	12.378	1.3877e-05	0.017646	
351.87	0.090000	0.031070	32.186	444.22	472.61	2.0582	0.84797	0.93378	175.93	12.323	1.3895e-05	0.017684	
352.35	0.090000	0.031026	32.231	444.63	473.06	2.0595	0.84874	0.93453	176.05	12.269	1.3913e-05	0.017722	
352.82	0.090000	0.030983	32.276	445.03	473.50	2.0608	0.84952	0.93529	176.17	12.215	1.3931e-05	0.017760	
353.30	0.090000	0.030940	32.321	445.44	473.95	2.0620	0.85029	0.93604	176.29	12.162	1.3949e-05	0.017798	
353.77	0.090000	0.030897	32.366	445.84	474.39	2.0633	0.85106	0.93679	176.40	12.108	1.3967e-05	0.017836	
354.25	0.090000	0.030854	32.411	446.25	474.84	2.0645	0.85184	0.93754	176.52	12.056	1.3985e-05	0.017874	
354.72	0.090000	0.030811	32.456	446.65	475.28	2.0658	0.85261	0.93830	176.64	12.003	1.4003e-05	0.017912	
355.20	0.090000	0.030768	32.501	447.06	475.73	2.0670	0.85338	0.93905	176.76	11.951	1.4021e-05	0.017950	
355.67	0.090000	0.030726	32.546	447.47	476.18	2.0683	0.85415	0.93980	176.87	11.899	1.4040e-05	0.017988	
356.15	0.090000	0.030683	32.591	447.87	476.62	2.0696	0.85493	0.94055	176.99	11.847	1.4058e-05	0.018026	
356.62	0.090000	0.030641	32.636	448.28	477.07	2.0708	0.85570	0.94130	177.11	11.796	1.4076e-05	0.018064	
357.10	0.090000	0.030599	32.681	448.69	477.52	2.0721	0.85647	0.94206	177.23	11.745	1.4094e-05	0.018102	
357.57	0.090000	0.030557	32.726	449.10	477.97	2.0733	0.85724	0.94281	177.34	11.694	1.4112e-05	0.018140	
358.05	0.090000	0.030515	32.771	449.51	478.41	2.0746	0.85801	0.94356	177.46	11.644	1.4130e-05	0.018178	
358.52	0.090000	0.030473	32.816	449.92	478.86	2.0758	0.85879	0.94431	177.58	11.594	1.4148e-05	0.018216	
359.00	0.090000	0.030431	32.861	450.33	479.31	2.0771	0.85956	0.94506	177.69	11.544	1.4166e-05	0.018254	
359.47	0.090000	0.030390	32.906	450.73	479.76	2.0783	0.86033	0.94581	177.81	11.495	1.4184e-05	0.018292	
359.95	0.090000	0.030348	32.951	451.14	480.21	2.0796	0.86110	0.94656	177.93	11.446	1.4202e-05	0.018330	
360.43	0.090000	0.030307	32.996	451.56	480.66	2.0808	0.86187	0.94732	178.04	11.397	1.4220e-05	0.018368	
360.90	0.090000	0.030266	33.041	451.97	481.11	2.0821	0.86264	0.94807	178.16	11.348	1.4238e-05	0.018406	
361.38	0.090000	0.030225	33.086	452.38	481.56	2.0833	0.86341	0.94882	178.27	11.300	1.4256e-05	0.018444	
361.85	0.090000	0.030184	33.131	452.79	482.01	2.0846	0.86418	0.94957	178.39	11.252	1.4275e-05	0.018482	
362.33	0.090000	0.030143	33.176	453.20	482.46	2.0858	0.86495	0.95032	178.51	11.204	1.4293e-05	0.018520	
362.80	0.090000	0.030102	33.220	453.61	482.92	2.0871	0.86571	0.95107	178.62	11.157	1.4311e-05	0.018558	
363.28	0.090000	0.030061	33.265	454.03	483.37	2.0883	0.86648	0.95182	178.74	11.110	1.4329e-05	0.018596	
363.75	0.090000	0.030021	33.310	454.44	483.82	2.0896	0.86725	0.95257	178.85	11.063	1.4347e-05	0.018634	
364.23	0.090000	0.029980	33.355	454.85	484.27	2.0908	0.86802	0.95332	178.97	11.016	1.4365e-05	0.018672	
364.70	0.090000	0.029940	33.400	455.26	484.73	2.0920	0.86879	0.95407	179.08	10.970	1.4383e-05	0.018710	
365.18	0.090000	0.029900	33.445	455.68	485.18	2.0933	0.86956	0.95482	179.20	10.924	1.4401e-05	0.018748	
365.65	0.090000	0.029860	33.490	456.09	485.63	2.0945	0.87032	0.95557	179.32	10.878	1.4419e-05	0.018786	
366.13	0.090000	0.029820	33.535	456.51	486.09	2.0958	0.87109	0.95632	179.43	10.833	1.4437e-05	0.018824	
366.60	0.090000	0.029780	33.580	456.92	486.54	2.0970	0.87186	0.95707	179.55	10.788	1.4455e-05	0.018863	
367.08	0.090000	0.029740	33.625	457.34	487.00	2.0983	0.87262	0.95782	179.66	10.743	1.4473e-05	0.018901	
367.55	0.090000	0.029700	33.670	457.75	487.45	2.0995	0.87339	0.95857	179.78	10.698	1.4491e-05	0.018939	
368.03	0.090000	0.029661	33.714	458.17	487.91	2.1007	0.87416	0.95931	179.89	10.654	1.4509e-05	0.018977	
368.50	0.090000	0.029621	33.759	458.59	488.37	2.1020	0.87492	0.96006	180.01	10.610	1.4527e-05	0.019015	
368.98	0.090000	0.029582	33.804	459.00	488.82	2.1032	0.87569	0.96081	180.12	10.566	1.4545e-05	0.019053	
369.46	0.090000	0.029543	33.849	459.42	489.28	2.1044	0.87645	0.96156	180.23	10.522	1.4563e-05	0.019091	
369.93	0.090000	0.029504	33.894	459.84	489.74	2.1057	0.87722	0.96231	180.35	10.479	1.4581e-05	0.019129	
370.41	0.090000	0.029465	33.939	460.26	490.19	2.1069	0.87798	0.96306	180.46	10.436	1.4599e-05	0.019167	
370.88	0.090000	0.029426	33.984	460.67	490.65	2.1082	0.87875	0.96380	180.58	10.393	1.4617e-05	0.019205	
371.36	0.090000	0.029387	34.029	461.09	491.11	2.1094	0.87951	0.96455	180.69	10.351	1.4635e-05	0.019243	
371.83	0.090000	0.029348	34.073	461.51	491.57	2.1106	0.88028	0.96530	180.81	10.308	1.4653e-05	0.019281	
372.31	0.090000	0.029310	34.118	461.93	492.03	2.1119	0.88104	0.96605	180.92	10.266	1.4671e-05	0.019319	
372.78	0.090000	0.029271	34.163	462.35	492.49	2.1131	0.88180	0.96680	181.03	10.224	1.4689e-05	0.019357	
373.26	0.090000	0.029233	34.208	462.77	492.95	2.1143	0.88257	0.96754	181.15	10.183	1.4707e-05	0.019395	
373.73	0.090000	0.029195	34.253	463.19	493.41	2.1155	0.88333	0.96829	181.26	10.141	1.4725e-05	0.019433	
374.21	0.090000	0.029157	34.298	463.61	493.87	2.1168	0.88409	0.96904	181.37	10.100	1.4743e-05	0.019471	
374.68	0.090000	0.029118	34.342	464.03	494.33	2.1180	0.88486	0.96978	181.49	10.059	1.4761e-05	0.019509	
375.16	0.090000	0.029081	34.387	464.46	494.79	2.1192	0.88562	0.97053	181.60	10.019	1.4779e-05	0.019547	
375.63	0.090000	0.029043	34.432	464.88	495.25	2.1205	0.88638	0.97128	181.72	9.9783	1.4797e-05	0.019585	
376.11	0.090000	0.029005	34.477	465.30	495.71	2.1217	0.88714	0.97202	181.83	9.9381	1.4815e-05	0.019623	
376.58	0.090000	0.028967	34.522	465.72	496.17	2.1229	0.88790	0.97277	181.94	9.8982	1.4833e-05	0.019661	
377.06	0.090000	0.028930	34.566	466.15	496.64	2.1242	0.88867	0.97352	182.05	9.8585	1.4851e-05	0.019699	
377.53	0.090000	0.028892	34.611	466.57	497.10	2.1254	0.88943	0.97426	182.17	9.8190	1.4869e-05	0.019737	
378.01	0.090000	0.028855	34.656	466.99	497.56	2.1266	0.89019	0.97501	182.28	9.7797	1.4887e-05	0.019775	
378.48	0.090000	0.028818	34.701	467.42	498.03	2.1278	0.89095	0.97575	182.39	9.7406	1.4904e-05	0.019813	
378.96	0.090000	0.028781	34.746	467.84	498.49	2.1291	0.89171	0.97650	182.51	9.7018	1.4922e-05	0.019851	
379.44	0.090000	0.028744	34.790	468.27	498.95	2.1303	0.89247	0.97724	182.62	9.6632	1.4940e-05	0.019889	
379.91	0.090000	0.028707	34.835	468.69	499.42	2.1315	0.89323	0.97799	182.73	9.6248	1.4958e-05	0.019927	
380.39	0.090000	0.028670	34.880	469.12	499.88	2.1327	0.89399	0.97873	182.84	9.5866	1.4976e-05	0.019966	
380.86	0.090000	0.028633	34.925	469.54	500.35	2.1340	0.89475	0.97948	182.96	9.5487	1.4994e-05	0.020004	
381.34	0.090000	0.028596	34.970	469.97	500.81	2.1352	0.89551	0.98022	183.07	9.5109	1.5012e-05	0.020042	
381.81	0.090000	0.028560	35.014	470.39	501.28	2.1364	0.89626	0.98097	183.18	9.4734	1.5030e-05	0.020080	
382.29	0.090000	0.028523	35.059	470.82	501.75	2.1376	0.89702	0.98171	183.29	9.4361	1.5048e-05	0.020118	
382.76	0.090000	0.028487	35.104	471.25	502.21	2.1388	0.89778	0.98246	183.41	9.3990	1.5066e-05	0.020156	
383.24	0.090000	0.028451	35.149	471.68	502.68	2.1401	0.89854	0.98320	183.52	9.3621	1.5084e-05	0.020194	
383.71	0.090000	0.028414	35.193	472.10	503.15	2.1413	0.89930	0.98394	183.63	9.3254	1.5102e-05	0.020232	
384.19	0.090000	0.028378	35.238	472.53	503.62	2.1425	0.90005	0.98469	183.74	9.2889	1.5120e-05	0.020270	
384.66	0.090000	0.028342	35.283	472.96	504.08	2.1437	0.90081	0.98543	183.85	9.2526	1.5138e-05	0.020308	
385.14	0.090000	0.028307	35.328	473.39	504.55	2.1449	0.90157	0.98617	183.96	9.2165	1.5155e-05	0.020346	
385.61	0.090000	0.028271	35.372	473.82	505.02	2.1461	0.90232	0.98692	184.08	9.1806	1.5173e-05	0.020384	
386.09	0.090000	0.028235	35.417	474.25	505.49	2.1474	0.90308	0.98766	184.19	9.1449	1.5191e-05	0.020422	
386.56	0.090000	0.028199	35.462	474.68	505.96	2.1486	0.90384	0.98840	184.30	9.1094	1.5209e-05	0.020460	
387.04	0.090000	0.028164	35.506	475.11	506.43	2.1498	0.90459	0.98914	184.41	9.0741	1.5227e-05	0.020498	
387.51	0.090000	0.028128	35.551	475.54	506.90	2.1510	0.90535	0.98989	184.52	9.0390	1.5245e-05	0.020536	
387.99	0.090000	0.028093	35.596	475.97	507.37	2.1522	0.90610	0.99063	184.63	9.0041	1.5263e-05	0.020574	
388.47	0.090000	0.028058	35.641	476.40	507.84	2.1534	0.90686	0.99137	184.74	8.9694	1.5281e-05	0.020612	
388.94	0.090000	0.028023	35.685	476.84	508.31	2.1546	0.90761	0.99211	184.85	8.9349	1.5299e-05	0.020650	
389.42	0.090000	0.027988	35.730	477.27	508.78	2.1559	0.90837	0.99285	184.97	8.9005	1.5316e-05	0.020688	
389.89	0.090000	0.027953	35.775	477.70	509.26	2.1571	0.90912	0.99360	185.08	8.8664	1.5334e-05	0.020726	
390.37	0.090000	0.027918	35.819	478.13	509.73	2.1583	0.90988	0.99434	185.19	8.8324	1.5352e-05	0.020764	
390.84	0.090000	0.027883	35.864	478.57	510.20	2.1595	0.91063	0.99508	185.30	8.7986	1.5370e-05	0.020802	
391.32	0.090000	0.027848	35.909	479.00	510.67	2.1607	0.91138	0.99582	185.41	8.7650	1.5388e-05	0.020840	
391.79	0.090000	0.027814	35.954	479.43	511.15	2.1619	0.91214	0.99656	185.52	8.7316	1.5406e-05	0.020878	
392.27	0.090000	0.027779	35.998	479.87	511.62	2.1631	0.91289	0.99730	185.63	8.6984	1.5424e-05	0.020916	
392.74	0.090000	0.027745	36.043	480.30	512.10	2.1643	0.91364	0.99804	185.74	8.6653	1.5442e-05	0.020954	
393.22	0.090000	0.027710	36.088	480.74	512.57	2.1655	0.91439	0.99878	185.85	8.6325	1.5459e-05	0.020993	
393.69	0.090000	0.027676	36.132	481.17	513.05	2.1667	0.91515	0.99952	185.96	8.5998	1.5477e-05	0.021031	
394.17	0.090000	0.027642	36.177	481.61	513.52	2.1679	0.91590	1.0003	186.07	8.5673	1.5495e-05	0.021069	
394.64	0.090000	0.027608	36.222	482.05	514.00	2.1691	0.91665	1.0010	186.18	8.5349	1.5513e-05	0.021107	
395.12	0.090000	0.027574	36.266	482.48	514.47	2.1704	0.91740	1.0017	186.29	8.5027	1.5531e-05	0.021145	
395.59	0.090000	0.027540	36.311	482.92	514.95	2.1716	0.91815	1.0025	186.40	8.4707	1.5549e-05	0.021183	
396.07	0.090000	0.027506	36.356	483.36	515.42	2.1728	0.91890	1.0032	186.51	8.4389	1.5567e-05	0.021221	
396.54	0.090000	0.027472	36.400	483.79	515.90	2.1740	0.91965	1.0040	186.62	8.4073	1.5584e-05	0.021259	
397.02	0.090000	0.027439	36.445	484.23	516.38	2.1752	0.92040	1.0047	186.73	8.3758	1.5602e-05	0.021297	
397.49	0.090000	0.027405	36.490	484.67	516.86	2.1764	0.92115	1.0054	186.84	8.3445	1.5620e-05	0.021335	
397.97	0.090000	0.027372	36.534	485.11	517.33	2.1776	0.92190	1.0062	186.95	8.3133	1.5638e-05	0.021373	
398.45	0.090000	0.027338	36.579	485.55	517.81	2.1788	0.92265	1.0069	187.06	8.2823	1.5656e-05	0.021411	
398.92	0.090000	0.027305	36.624	485.99	518.29	2.1800	0.92340	1.0076	187.17	8.2515	1.5674e-05	0.021449	
399.40	0.090000	0.027272	36.668	486.43	518.77	2.1812	0.92415	1.0084	187.28	8.2208	1.5691e-05	0.021487	
399.87	0.090000	0.027238	36.713	486.87	519.25	2.1824	0.92490	1.0091	187.38	8.1903	1.5709e-05	0.021525	
400.35	0.090000	0.027205	36.757	487.31	519.73	2.1836	0.92565	1.0099	187.49	8.1600	1.5727e-05	0.021563	
400.82	0.090000	0.027172	36.802	487.75	520.21	2.1848	0.92639	1.0106	187.60	8.1298	1.5745e-05	0.021601	
401.30	0.090000	0.027139	36.847	488.19	520.69	2.1860	0.92714	1.0113	187.71	8.0998	1.5763e-05	0.021639	
401.77	0.090000	0.027107	36.891	488.63	521.17	2.1872	0.92789	1.0121	187.82	8.0699	1.5780e-05	0.021677	
402.25	0.090000	0.027074	36.936	489.07	521.65	2.1884	0.92864	1.0128	187.93	8.0402	1.5798e-05	0.021715	
402.72	0.090000	0.027041	36.981	489.51	522.13	2.1896	0.92938	1.0135	188.04	8.0107	1.5816e-05	0.021753	
403.20	0.090000	0.027009	37.025	489.96	522.62	2.1908	0.93013	1.0143	188.15	7.9813	1.5834e-05	0.021791	
403.67	0.090000	0.026976	37.070	490.40	523.10	2.1920	0.93088	1.0150	188.26	7.9521	1.5852e-05	0.021829	
404.15	0.090000	0.026944	37.114	490.84	523.58	2.1931	0.93162	1.0157	188.36	7.9230	1.5869e-05	0.021867	
404.62	0.090000	0.026911	37.159	491.29	524.06	2.1943	0.93237	1.0165	188.47	7.8940	1.5887e-05	0.021905	
405.10	0.090000	0.026879	37.204	491.73	524.55	2.1955	0.93311	1.0172	188.58	7.8653	1.5905e-05	0.021943	
405.57	0.090000	0.026847	37.248	492.17	525.03	2.1967	0.93386	1.0180	188.69	7.8366	1.5923e-05	0.021982	
406.05	0.090000	0.026815	37.293	492.62	525.51	2.1979	0.93461	1.0187	188.80	7.8081	1.5941e-05	0.022020	
406.52	0.090000	0.026783	37.337	493.06	526.00	2.1991	0.93535	1.0194	188.91	7.7798	1.5958e-05	0.022058	
407.00	0.090000	0.026751	37.382	493.51	526.48	2.2003	0.93609	1.0202	189.01	7.7516	1.5976e-05	0.022096	
407.48	0.090000	0.026719	37.427	493.96	526.97	2.2015	0.93684	1.0209	189.12	7.7236	1.5994e-05	0.022134	
407.95	0.090000	0.026687	37.471	494.40	527.45	2.2027	0.93758	1.0216	189.23	7.6957	1.6012e-05	0.022172	
408.43	0.090000	0.026655	37.516	494.85	527.94	2.2039	0.93833	1.0224	189.34	7.6679	1.6030e-05	0.022210	
408.90	0.090000	0.026624	37.560	495.29	528.43	2.2051	0.93907	1.0231	189.44	7.6403	1.6047e-05	0.022248	
409.38	0.090000	0.026592	37.605	495.74	528.91	2.2063	0.93981	1.0238	189.55	7.6128	1.6065e-05	0.022286	
409.85	0.090000	0.026561	37.650	496.19	529.40	2.2074	0.94056	1.0246	189.66	7.5855	1.6083e-05	0.022324	
410.33	0.090000	0.026529	37.694	496.64	529.89	2.2086	0.94130	1.0253	189.77	7.5583	1.6101e-05	0.022362	
410.80	0.090000	0.026498	37.739	497.08	530.37	2.2098	0.94204	1.0260	189.87	7.5312	1.6118e-05	0.022400	
411.28	0.090000	0.026467	37.783	497.53	530.86	2.2110	0.94278	1.0268	189.98	7.5043	1.6136e-05	0.022438	
411.75	0.090000	0.026436	37.828	497.98	531.35	2.2122	0.94353	1.0275	190.09	7.4775	1.6154e-05	0.022476	
412.23	0.090000	0.026404	37.872	498.43	531.84	2.2134	0.94427	1.0282	190.20	7.4509	1.6172e-05	0.022514	
412.70	0.090000	0.026373	37.917	498.88	532.33	2.2146	0.94501	1.0290	190.30	7.4244	1.6189e-05	0.022552	
413.18	0.090000	0.026342	37.961	499.33	532.82	2.2157	0.94575	1.0297	190.41	7.3980	1.6207e-05	0.022590	
413.65	0.090000	0.026312	38.006	499.78	533.31	2.2169	0.94649	1.0304	190.52	7.3717	1.6225e-05	0.022628	
414.13	0.090000	0.026281	38.051	500.23	533.80	2.2181	0.94723	1.0311	190.62	7.3456	1.6243e-05	0.022666	
414.60	0.090000	0.026250	38.095	500.68	534.29	2.2193	0.94797	1.0319	190.73	7.3196	1.6260e-05	0.022704	
415.08	0.090000	0.026219	38.140	501.13	534.78	2.2205	0.94871	1.0326	190.84	7.2938	1.6278e-05	0.022742	
415.55	0.090000	0.026189	38.184	501.59	535.27	2.2217	0.94945	1.0333	190.95	7.2681	1.6296e-05	0.022780	
416.03	0.090000	0.026158	38.229	502.04	535.76	2.2228	0.95019	1.0341	191.05	7.2425	1.6314e-05	0.022818	
416.50	0.090000	0.026128	38.273	502.49	536.25	2.2240	0.95093	1.0348	191.16	7.2170	1.6331e-05	0.022856	
416.98	0.090000	0.026097	38.318	502.94	536.74	2.2252	0.95167	1.0355	191.26	7.1917	1.6349e-05	0.022895	
417.46	0.090000	0.026067	38.362	503.40	537.23	2.2264	0.95241	1.0363	191.37	7.1665	1.6367e-05	0.022933	
417.93	0.090000	0.026037	38.407	503.85	537.73	2.2276	0.95315	1.0370	191.48	7.1414	1.6384e-05	0.022971	
418.41	0.090000	0.026007	38.451	504.30	538.22	2.2287	0.95389	1.0377	191.58	7.1164	1.6402e-05	0.023009	
418.88	0.090000	0.025977	38.496	504.76	538.71	2.2299	0.95462	1.0384	191.69	7.0916	1.6420e-05	0.023047	
419.36	0.090000	0.025947	38.541	505.21	539.21	2.2311	0.95536	1.0392	191.80	7.0669	1.6438e-05	0.023085	
419.83	0.090000	0.025917	38.585	505.67	539.70	2.2323	0.95610	1.0399	191.90	7.0423	1.6455e-05	0.023123	
420.31	0.090000	0.025887	38.630	506.12	540.20	2.2335	0.95684	1.0406	192.01	7.0178	1.6473e-05	0.023161	
420.78	0.090000	0.025857	38.674	506.58	540.69	2.2346	0.95757	1.0414	192.11	6.9935	1.6491e-05	0.023199	
421.26	0.090000	0.025827	38.719	507.03	541.18	2.2358	0.95831	1.0421	192.22	6.9693	1.6508e-05	0.023237	
421.73	0.090000	0.025798	38.763	507.49	541.68	2.2370	0.95905	1.0428	192.33	6.9452	1.6526e-05	0.023275	
422.21	0.090000	0.025768	38.808	507.94	542.18	2.2382	0.95978	1.0435	192.43	6.9212	1.6544e-05	0.023313	
422.68	0.090000	0.025739	38.852	508.40	542.67	2.2393	0.96052	1.0443	192.54	6.8973	1.6562e-05	0.023351	
423.16	0.090000	0.025709	38.897	508.86	543.17	2.2405	0.96125	1.0450	192.64	6.8736	1.6579e-05	0.023389	
423.63	0.090000	0.025680	38.941	509.32	543.67	2.2417	0.96199	1.0457	192.75	6.8499	1.6597e-05	0.023427	
424.11	0.090000	0.025650	38.986	509.77	544.16	2.2429	0.96272	1.0464	192.85	6.8264	1.6615e-05	0.023465	
424.58	0.090000	0.025621	39.030	510.23	544.66	2.2440	0.96346	1.0472	192.96	6.8030	1.6632e-05	0.023503	
425.06	0.090000	0.025592	39.075	510.69	545.16	2.2452	0.96419	1.0479	193.07	6.7797	1.6650e-05	0.023541	
425.53	0.090000	0.025563	39.119	511.15	545.66	2.2464	0.96493	1.0486	193.17	6.7565	1.6668e-05	0.023579	
426.01	0.090000	0.025534	39.164	511.61	546.15	2.2475	0.96566	1.0494	193.28	6.7335	1.6685e-05	0.023617	
426.49	0.090000	0.025505	39.208	512.07	546.65	2.2487	0.96640	1.0501	193.38	6.7105	1.6703e-05	0.023655	
426.96	0.090000	0.025476	39.253	512.53	547.15	2.2499	0.96713	1.0508	193.49	6.6877	1.6721e-05	0.023693	
427.44	0.090000	0.025447	39.297	512.99	547.65	2.2510	0.96786	1.0515	193.59	6.6649	1.6738e-05	0.023731	
427.91	0.090000	0.025418	39.342	513.45	548.15	2.2522	0.96860	1.0523	193.70	6.6423	1.6756e-05	0.023770	
428.39	0.090000	0.025390	39.386	513.91	548.65	2.2534	0.96933	1.0530	193.80	6.6198	1.6774e-05	0.023808	
428.86	0.090000	0.025361	39.431	514.37	549.15	2.2546	0.97006	1.0537	193.91	6.5974	1.6791e-05	0.023846	
429.34	0.090000	0.025332	39.475	514.83	549.65	2.2557	0.97079	1.0544	194.01	6.5751	1.6809e-05	0.023884	
429.81	0.090000	0.025304	39.520	515.30	550.16	2.2569	0.97153	1.0552	194.11	6.5529	1.6827e-05	0.023922	
430.29	0.090000	0.025275	39.564	515.76	550.66	2.2581	0.97226	1.0559	194.22	6.5308	1.6844e-05	0.023960	
430.76	0.090000	0.025247	39.609	516.22	551.16	2.2592	0.97299	1.0566	194.32	6.5089	1.6862e-05	0.023998	
431.24	0.090000	0.025219	39.653	516.68	551.66	2.2604	0.97372	1.0573	194.43	6.4870	1.6880e-05	0.024036	
431.71	0.090000	0.025191	39.697	517.15	552.16	2.2615	0.97445	1.0580	194.53	6.4652	1.6897e-05	0.024074	
432.19	0.090000	0.025162	39.742	517.61	552.67	2.2627	0.97518	1.0588	194.64	6.4436	1.6915e-05	0.024112	
432.66	0.090000	0.025134	39.786	518.08	553.17	2.2639	0.97591	1.0595	194.74	6.4220	1.6933e-05	0.024150	
433.14	0.090000	0.025106	39.831	518.54	553.67	2.2650	0.97664	1.0602	194.85	6.4006	1.6950e-05	0.024188	
433.61	0.090000	0.025078	39.875	519.00	554.18	2.2662	0.97737	1.0609	194.95	6.3792	1.6968e-05	0.024226	
434.09	0.090000	0.025050	39.920	519.47	554.68	2.2674	0.97810	1.0617	195.05	6.3579	1.6985e-05	0.024264	
434.56	0.090000	0.025022	39.964	519.94	555.19	2.2685	0.97883	1.0624	195.16	6.3368	1.7003e-05	0.024302	
435.04	0.090000	0.024995	40.009	520.40	555.69	2.2697	0.97956	1.0631	195.26	6.3157	1.7021e-05	0.024340	
435.51	0.090000	0.024967	40.053	520.87	556.20	2.2709	0.98029	1.0638	195.37	6.2948	1.7038e-05	0.024378	
435.99	0.090000	0.024939	40.098	521.33	556.70	2.2720	0.98102	1.0645	195.47	6.2739	1.7056e-05	0.024416	
436.47	0.090000	0.024912	40.142	521.80	557.21	2.2732	0.98175	1.0653	195.57	6.2532	1.7074e-05	0.024454	
436.94	0.090000	0.024884	40.187	522.27	557.72	2.2743	0.98248	1.0660	195.68	6.2325	1.7091e-05	0.024492	
437.42	0.090000	0.024856	40.231	522.74	558.22	2.2755	0.98320	1.0667	195.78	6.2119	1.7109e-05	0.024530	
437.89	0.090000	0.024829	40.275	523.20	558.73	2.2767	0.98393	1.0674	195.88	6.1915	1.7127e-05	0.024568	
438.37	0.090000	0.024802	40.320	523.67	559.24	2.2778	0.98466	1.0681	195.99	6.1711	1.7144e-05	0.024606	
438.84	0.090000	0.024774	40.364	524.14	559.75	2.2790	0.98539	1.0689	196.09	6.1508	1.7162e-05	0.024645	
439.32	0.090000	0.024747	40.409	524.61	560.25	2.2801	0.98611	1.0696	196.19	6.1307	1.7179e-05	0.024683	
439.79	0.090000	0.024720	40.453	525.08	560.76	2.2813	0.98684	1.0703	196.30	6.1106	1.7197e-05	0.024721	
440.27	0.090000	0.024693	40.498	525.55	561.27	2.2824	0.98756	1.0710	196.40	6.0906	1.7215e-05	0.024759	
440.74	0.090000	0.024666	40.542	526.02	561.78	2.2836	0.98829	1.0717	196.50	6.0707	1.7232e-05	0.024797	
441.22	0.090000	0.024639	40.586	526.49	562.29	2.2847	0.98902	1.0725	196.61	6.0509	1.7250e-05	0.024835	
441.69	0.090000	0.024612	40.631	526.96	562.80	2.2859	0.98974	1.0732	196.71	6.0311	1.7267e-05	0.024873	
442.17	0.090000	0.024585	40.675	527.43	563.31	2.2871	0.99047	1.0739	196.81	6.0115	1.7285e-05	0.024911	
442.64	0.090000	0.024558	40.720	527.90	563.82	2.2882	0.99119	1.0746	196.92	5.9920	1.7303e-05	0.024949	
443.12	0.090000	0.024531	40.764	528.37	564.33	2.2894	0.99192	1.0753	197.02	5.9725	1.7320e-05	0.024987	
443.59	0.090000	0.024505	40.809	528.85	564.84	2.2905	0.99264	1.0761	197.12	5.9532	1.7338e-05	0.025025	
444.07	0.090000	0.024478	40.853	529.32	565.35	2.2917	0.99337	1.0768	197.22	5.9339	1.7355e-05	0.025063	
444.54	0.090000	0.024451	40.897	529.79	565.87	2.2928	0.99409	1.0775	197.33	5.9147	1.7373e-05	0.025101	
445.02	0.090000	0.024425	40.942	530.26	566.38	2.2940	0.99481	1.0782	197.43	5.8957	1.7390e-05	0.025139	
445.50	0.090000	0.024398	40.986	530.74	566.89	2.2951	0.99554	1.0789	197.53	5.8767	1.7408e-05	0.025177	
445.97	0.090000	0.024372	41.031	531.21	567.40	2.2963	0.99626	1.0796	197.64	5.8577	1.7426e-05	0.025215	
446.45	0.090000	0.024346	41.075	531.69	567.92	2.2974	0.99698	1.0804	197.74	5.8389	1.7443e-05	0.025253	
446.92	0.090000	0.024319	41.119	532.16	568.43	2.2986	0.99771	1.0811	197.84	5.8202	1.7461e-05	0.025291	
447.40	0.090000	0.024293	41.164	532.63	568.94	2.2997	0.99843	1.0818	197.94	5.8015	1.7478e-05	0.025329	
447.87	0.090000	0.024267	41.208	533.11	569.46	2.3009	0.99915	1.0825	198.04	5.7829	1.7496e-05	0.025367	
448.35	0.090000	0.024241	41.253	533.58	569.97	2.3020	0.99987	1.0832	198.15	5.7644	1.7514e-05	0.025405	
448.82	0.090000	0.024215	41.297	534.06	570.49	2.3032	1.0006	1.0839	198.25	5.7460	1.7531e-05	0.025443	
449.30	0.090000	0.024189	41.342	534.54	571.00	2.3043	1.0013	1.0847	198.35	5.7277	1.7549e-05	0.025482	
449.77	0.090000	0.024163	41.386	535.01	571.52	2.3055	1.0020	1.0854	198.45	5.7095	1.7566e-05	0.025520	
450.25	0.090000	0.024137	41.430	535.49	572.03	2.3066	1.0028	1.0861	198.56	5.6913	1.7584e-05	0.025558	
450.72	0.090000	0.024111	41.475	535.97	572.55	2.3078	1.0035	1.0868	198.66	5.6732	1.7601e-05	0.025596	
451.20	0.090000	0.024085	41.519	536.44	573.07	2.3089	1.0042	1.0875	198.76	5.6553	1.7619e-05	0.025634	
451.67	0.090000	0.024060	41.563	536.92	573.58	2.3101	1.0049	1.0882	198.86	5.6373	1.7636e-05	0.025672	
452.15	0.090000	0.024034	41.608	537.40	574.10	2.3112	1.0056	1.0889	198.96	5.6195	1.7654e-05	0.025710	
452.62	0.090000	0.024008	41.652	537.88	574.62	2.3123	1.0064	1.0897	199.06	5.6018	1.7672e-05	0.025748	
453.10	0.090000	0.023983	41.697	538.36	575.14	2.3135	1.0071	1.0904	199.17	5.5841	1.7689e-05	0.025786	
453.57	0.090000	0.023957	41.741	538.84	575.66	2.3146	1.0078	1.0911	199.27	5.5665	1.7707e-05	0.025824	
454.05	0.090000	0.023932	41.785	539.32	576.18	2.3158	1.0085	1.0918	199.37	5.5490	1.7724e-05	0.025862	
454.52	0.090000	0.023906	41.830	539.80	576.69	2.3169	1.0092	1.0925	199.47	5.5315	1.7742e-05	0.025900	



];
t=data(:,1);
s=data(:,7);
h=data(:,6);



