function [t,p,s,h,t2,p2,s2,h2]=R134aSaturationLine
data=[
169.85	0.00038960	15.594	0.064126	71.456	71.456	0.41262	0.79221	1.1838	1120.0	-0.38145	0.0021535	0.14524	0.028072	0.00027614	3621.4	321.11	334.94	1.9639	0.50296	0.58530	126.79	373.56	6.8294e-06	0.0030802
201.67	0.0071544	14.759	0.067754	109.40	109.41	0.61733	0.80284	1.2078	959.34	-0.34894	0.00083571	0.12683	0.022682	0.0042960	232.78	337.77	354.10	1.8307	0.57712	0.66280	136.44	111.61	8.0791e-06	0.0056316
211.12	0.013919	14.505	0.068943	120.88	120.89	0.67295	0.81088	1.2202	912.85	-0.33502	0.00068691	0.12177	0.021127	0.0080160	124.75	343.01	360.03	1.8057	0.59926	0.68705	138.91	87.874	8.4422e-06	0.0063922
217.28	0.020684	14.337	0.069750	128.41	128.43	0.70814	0.81665	1.2290	882.97	-0.32488	0.00061143	0.11856	0.020127	0.011615	86.097	346.47	363.93	1.7920	0.61385	0.70345	140.39	76.739	8.6760e-06	0.0068884
221.95	0.027449	14.208	0.070382	134.17	134.19	0.73435	0.82124	1.2362	860.49	-0.31656	0.00056248	0.11618	0.019375	0.015137	66.064	349.12	366.89	1.7828	0.62506	0.71632	141.43	69.842	8.8520e-06	0.0072655
225.76	0.034214	14.103	0.070909	138.89	138.91	0.75541	0.82510	1.2422	842.28	-0.30935	0.00052693	0.11426	0.018766	0.018604	53.753	351.28	369.31	1.7760	0.63430	0.72712	142.23	64.987	8.9945e-06	0.0075736
228.99	0.040979	14.012	0.071368	142.91	142.94	0.77313	0.82845	1.2476	826.88	-0.30289	0.00049934	0.11264	0.018252	0.022028	45.397	353.13	371.37	1.7706	0.64225	0.73654	142.87	61.306	9.1151e-06	0.0078360
231.82	0.047743	13.932	0.071776	146.45	146.48	0.78847	0.83143	1.2523	813.47	-0.29699	0.00047699	0.11124	0.017805	0.025418	39.342	354.75	373.16	1.7663	0.64926	0.74498	143.39	58.375	9.2200e-06	0.0080658
234.35	0.054508	13.861	0.072146	149.61	149.65	0.80203	0.83412	1.2567	801.56	-0.29150	0.00045831	0.11001	0.017409	0.028780	34.747	356.20	374.76	1.7626	0.65558	0.75267	143.84	55.960	9.3132e-06	0.0082710
236.63	0.061273	13.796	0.072487	152.48	152.52	0.81422	0.83658	1.2608	790.82	-0.28635	0.00044233	0.10890	0.017052	0.032117	31.136	357.51	376.21	1.7595	0.66135	0.75977	144.21	53.920	9.3972e-06	0.0084570
238.72	0.068038	13.736	0.072803	155.11	155.16	0.82531	0.83886	1.2646	781.01	-0.28147	0.00042842	0.10789	0.016726	0.035434	28.221	358.71	377.53	1.7568	0.66667	0.76640	144.54	52.162	9.4739e-06	0.0086275
240.65	0.074803	13.680	0.073099	157.55	157.61	0.83549	0.84098	1.2681	771.97	-0.27682	0.00041615	0.10696	0.016427	0.038734	25.817	359.82	378.74	1.7544	0.67162	0.77262	144.83	50.623	9.5446e-06	0.0087853
242.44	0.081567	13.628	0.073377	159.83	159.89	0.84491	0.84296	1.2715	763.58	-0.27236	0.00040518	0.10610	0.016149	0.042017	23.800	360.85	379.87	1.7523	0.67626	0.77851	145.08	49.260	9.6102e-06	0.0089323
244.12	0.088332	13.579	0.073642	161.96	162.03	0.85368	0.84483	1.2747	755.75	-0.26807	0.00039529	0.10530	0.015890	0.045287	22.081	361.81	380.93	1.7504	0.68063	0.78411	145.30	48.038	9.6714e-06	0.0090701
245.70	0.095097	13.533	0.073893	163.98	164.05	0.86191	0.84661	1.2778	748.38	-0.26392	0.00038630	0.10456	0.015648	0.048544	20.600	362.72	381.92	1.7486	0.68477	0.78946	145.50	46.935	9.7290e-06	0.0092001
247.19	0.10186	13.489	0.074133	165.88	165.96	0.86965	0.84829	1.2808	741.43	-0.25989	0.00037807	0.10385	0.015419	0.051791	19.309	363.57	382.85	1.7471	0.68870	0.79459	145.68	45.931	9.7833e-06	0.0093231
248.61	0.10863	13.447	0.074364	167.70	167.78	0.87696	0.84990	1.2836	734.85	-0.25598	0.00037049	0.10319	0.015203	0.055027	18.173	364.39	383.74	1.7456	0.69246	0.79952	145.84	45.011	9.8348e-06	0.0094400
249.96	0.11539	13.407	0.074585	169.43	169.51	0.88390	0.85144	1.2864	728.59	-0.25217	0.00036347	0.10255	0.014997	0.058254	17.166	365.16	384.57	1.7443	0.69605	0.80428	145.98	44.164	9.8837e-06	0.0095515
251.24	0.12216	13.369	0.074799	171.08	171.17	0.89051	0.85291	1.2890	722.61	-0.24844	0.00035695	0.10195	0.014802	0.061474	16.267	365.90	385.37	1.7431	0.69950	0.80888	146.11	43.379	9.9304e-06	0.0096582
252.48	0.12892	13.332	0.075006	172.67	172.77	0.89681	0.85433	1.2916	716.90	-0.24480	0.00035085	0.10138	0.014615	0.064686	15.459	366.60	386.14	1.7419	0.70282	0.81334	146.22	42.650	9.9751e-06	0.0097605
253.66	0.13569	13.297	0.075206	174.20	174.30	0.90285	0.85570	1.2941	711.43	-0.24122	0.00034514	0.10083	0.014436	0.067891	14.729	367.28	386.87	1.7409	0.70602	0.81767	146.32	41.969	1.0018e-05	0.0098589
254.80	0.14245	13.263	0.075400	175.67	175.77	0.90863	0.85702	1.2966	706.16	-0.23772	0.00033976	0.10031	0.014265	0.071091	14.067	367.93	387.57	1.7399	0.70911	0.82188	146.42	41.332	1.0059e-05	0.0099536
255.89	0.14922	13.229	0.075589	177.09	177.20	0.91419	0.85830	1.2990	701.10	-0.23427	0.00033469	0.099803	0.014100	0.074285	13.462	368.56	388.24	1.7389	0.71210	0.82599	146.50	40.733	1.0099e-05	0.010045
256.95	0.15598	13.197	0.075772	178.46	178.57	0.91954	0.85954	1.3013	696.21	-0.23088	0.00032989	0.099317	0.013941	0.077473	12.908	369.16	388.89	1.7381	0.71500	0.82999	146.57	40.169	1.0137e-05	0.010133
257.97	0.16275	13.166	0.075951	179.79	179.91	0.92470	0.86074	1.3036	691.49	-0.22754	0.00032534	0.098848	0.013788	0.080658	12.398	369.74	389.52	1.7372	0.71781	0.83390	146.64	39.635	1.0174e-05	0.010219
258.96	0.16951	13.136	0.076126	181.07	181.20	0.92968	0.86190	1.3058	686.93	-0.22425	0.00032102	0.098395	0.013641	0.083838	11.928	370.31	390.12	1.7365	0.72054	0.83773	146.70	39.131	1.0210e-05	0.010302
259.92	0.17627	13.107	0.076297	182.32	182.45	0.93450	0.86304	1.3080	682.50	-0.22100	0.00031690	0.097958	0.013498	0.087014	11.492	370.85	390.71	1.7357	0.72320	0.84147	146.75	38.652	1.0245e-05	0.010383
260.85	0.18304	13.078	0.076464	183.54	183.68	0.93917	0.86414	1.3102	678.21	-0.21779	0.00031298	0.097534	0.013359	0.090187	11.088	371.38	391.27	1.7350	0.72579	0.84514	146.79	38.196	1.0278e-05	0.010461
261.76	0.18980	13.050	0.076628	184.72	184.86	0.94369	0.86522	1.3123	674.05	-0.21461	0.00030922	0.097123	0.013225	0.093357	10.712	371.90	391.82	1.7343	0.72832	0.84874	146.83	37.762	1.0311e-05	0.010538
262.64	0.19657	13.023	0.076788	185.87	186.02	0.94809	0.86627	1.3143	669.99	-0.21147	0.00030562	0.096724	0.013095	0.096524	10.360	372.40	392.35	1.7337	0.73078	0.85227	146.87	37.348	1.0343e-05	0.010612
263.49	0.20333	12.996	0.076945	187.00	187.15	0.95236	0.86730	1.3164	666.05	-0.20837	0.00030217	0.096336	0.012969	0.099689	10.031	372.88	392.87	1.7331	0.73318	0.85575	146.90	36.953	1.0374e-05	0.010685
264.33	0.21010	12.970	0.077099	188.09	188.25	0.95651	0.86830	1.3184	662.21	-0.20529	0.00029886	0.095959	0.012846	0.10285	9.7228	373.35	393.37	1.7325	0.73554	0.85916	146.92	36.574	1.0404e-05	0.010755
265.14	0.21686	12.945	0.077251	189.16	189.33	0.96056	0.86928	1.3204	658.46	-0.20224	0.00029568	0.095592	0.012726	0.10601	9.4329	373.81	393.86	1.7320	0.73784	0.86252	146.94	36.211	1.0434e-05	0.010825
265.94	0.22363	12.920	0.077400	190.21	190.38	0.96450	0.87024	1.3223	654.81	-0.19922	0.00029261	0.095234	0.012609	0.10917	9.1600	374.26	394.34	1.7315	0.74009	0.86583	146.96	35.863	1.0463e-05	0.010892
266.71	0.23039	12.895	0.077546	191.23	191.41	0.96834	0.87118	1.3243	651.24	-0.19622	0.00028965	0.094886	0.012495	0.11233	8.9026	374.70	394.80	1.7309	0.74229	0.86909	146.97	35.528	1.0491e-05	0.010959
267.47	0.23716	12.872	0.077691	192.23	192.41	0.97209	0.87210	1.3262	647.75	-0.19324	0.00028680	0.094545	0.012384	0.11548	8.6593	375.13	395.25	1.7305	0.74445	0.87230	146.98	35.206	1.0519e-05	0.011024
268.21	0.24392	12.848	0.077833	193.21	193.40	0.97576	0.87301	1.3280	644.34	-0.19028	0.00028404	0.094213	0.012276	0.11864	8.4291	375.55	395.70	1.7300	0.74658	0.87547	146.99	34.896	1.0546e-05	0.011087
268.94	0.25069	12.825	0.077973	194.18	194.37	0.97934	0.87390	1.3299	641.00	-0.18735	0.00028138	0.093888	0.012170	0.12179	8.2108	375.95	396.13	1.7295	0.74866	0.87859	146.99	34.598	1.0572e-05	0.011150
269.65	0.25745	12.802	0.078111	195.12	195.32	0.98284	0.87477	1.3317	637.73	-0.18443	0.00027880	0.093570	0.012066	0.12494	8.0037	376.35	396.55	1.7291	0.75070	0.88168	146.99	34.309	1.0598e-05	0.011211
270.35	0.26422	12.780	0.078247	196.04	196.25	0.98627	0.87563	1.3336	634.52	-0.18153	0.00027630	0.093259	0.011965	0.12809	7.8067	376.74	396.96	1.7287	0.75271	0.88473	146.98	34.031	1.0623e-05	0.011271
271.03	0.27098	12.758	0.078381	196.95	197.16	0.98962	0.87647	1.3354	631.38	-0.17865	0.00027387	0.092955	0.011866	0.13125	7.6193	377.13	397.36	1.7283	0.75468	0.88774	146.98	33.762	1.0648e-05	0.011330
271.70	0.27775	12.737	0.078514	197.84	198.06	0.99291	0.87730	1.3371	628.30	-0.17579	0.00027152	0.092656	0.011769	0.13440	7.4407	377.50	397.76	1.7279	0.75662	0.89072	146.97	33.502	1.0673e-05	0.011388
272.36	0.28451	12.715	0.078644	198.72	198.94	0.99613	0.87811	1.3389	625.28	-0.17293	0.00026924	0.092364	0.011674	0.13755	7.2702	377.87	398.14	1.7275	0.75853	0.89366	146.96	33.250	1.0697e-05	0.011445
273.01	0.29128	12.695	0.078774	199.58	199.81	0.99930	0.87891	1.3406	622.31	-0.17010	0.00026702	0.092077	0.011581	0.14070	7.1074	378.23	398.52	1.7272	0.76040	0.89658	146.94	33.006	1.0721e-05	0.011502
273.64	0.29804	12.674	0.078902	200.43	200.66	1.0024	0.87970	1.3424	619.39	-0.16727	0.00026486	0.091796	0.011489	0.14385	6.9518	378.58	398.89	1.7268	0.76225	0.89946	146.93	32.769	1.0744e-05	0.011557
274.26	0.30481	12.654	0.079028	201.26	201.50	1.0054	0.88048	1.3441	616.53	-0.16446	0.00026276	0.091520	0.011400	0.14700	6.8028	378.93	399.25	1.7265	0.76407	0.90232	146.91	32.540	1.0767e-05	0.011611
274.88	0.31157	12.634	0.079153	202.08	202.32	1.0084	0.88125	1.3458	613.71	-0.16166	0.00026071	0.091249	0.011311	0.15015	6.6600	379.27	399.61	1.7261	0.76586	0.90514	146.89	32.317	1.0790e-05	0.011665
275.48	0.31834	12.614	0.079277	202.89	203.14	1.0114	0.88200	1.3475	610.94	-0.15887	0.00025872	0.090983	0.011225	0.15330	6.5231	379.61	399.96	1.7258	0.76763	0.90794	146.87	32.100	1.0812e-05	0.011718
276.07	0.32510	12.595	0.079399	203.69	203.94	1.0143	0.88275	1.3492	608.22	-0.15609	0.00025678	0.090721	0.011140	0.15645	6.3918	379.93	400.30	1.7255	0.76937	0.91072	146.84	31.890	1.0834e-05	0.011770
276.66	0.33187	12.575	0.079520	204.47	204.73	1.0171	0.88348	1.3508	605.54	-0.15331	0.00025488	0.090463	0.011057	0.15960	6.2655	380.26	400.64	1.7252	0.77109	0.91347	146.82	31.686	1.0856e-05	0.011822
277.23	0.33863	12.557	0.079640	205.24	205.51	1.0199	0.88421	1.3525	602.90	-0.15055	0.00025303	0.090210	0.010975	0.16276	6.1442	380.57	400.97	1.7249	0.77278	0.91620	146.79	31.487	1.0877e-05	0.011872
277.80	0.34540	12.538	0.079759	206.00	206.27	1.0226	0.88492	1.3541	600.29	-0.14780	0.00025123	0.089961	0.010894	0.16591	6.0274	380.89	401.29	1.7246	0.77446	0.91890	146.76	31.293	1.0898e-05	0.011922
278.36	0.35216	12.519	0.079876	206.76	207.03	1.0253	0.88563	1.3558	597.73	-0.14505	0.00024946	0.089716	0.010815	0.16906	5.9149	381.19	401.61	1.7244	0.77611	0.92158	146.73	31.105	1.0919e-05	0.011972
278.90	0.35892	12.501	0.079993	207.50	207.78	1.0280	0.88633	1.3574	595.21	-0.14231	0.00024774	0.089475	0.010737	0.17222	5.8066	381.50	401.92	1.7241	0.77773	0.92425	146.70	30.921	1.0939e-05	0.012021
279.45	0.36569	12.483	0.080108	208.23	208.51	1.0306	0.88702	1.3590	592.72	-0.13958	0.00024605	0.089237	0.010660	0.17537	5.7021	381.79	402.23	1.7238	0.77934	0.92689	146.66	30.742	1.0959e-05	0.012069
279.98	0.37245	12.465	0.080223	208.95	209.24	1.0332	0.88770	1.3606	590.27	-0.13685	0.00024440	0.089003	0.010584	0.17853	5.6013	382.09	402.53	1.7236	0.78093	0.92951	146.63	30.567	1.0979e-05	0.012117
280.51	0.37922	12.448	0.080337	209.66	209.96	1.0357	0.88837	1.3622	587.85	-0.13413	0.00024279	0.088773	0.010510	0.18169	5.5039	382.38	402.83	1.7233	0.78250	0.93212	146.59	30.397	1.0999e-05	0.012164
281.03	0.38598	12.430	0.080449	210.36	210.67	1.0382	0.88904	1.3638	585.46	-0.13142	0.00024121	0.088545	0.010436	0.18485	5.4099	382.66	403.13	1.7231	0.78405	0.93470	146.55	30.231	1.1019e-05	0.012210
281.54	0.39275	12.413	0.080561	211.06	211.37	1.0407	0.88969	1.3653	583.10	-0.12871	0.00023966	0.088321	0.010364	0.18801	5.3189	382.94	403.41	1.7228	0.78558	0.93727	146.52	30.068	1.1038e-05	0.012256
282.04	0.39951	12.396	0.080672	211.75	212.06	1.0432	0.89035	1.3669	580.78	-0.12600	0.00023814	0.088100	0.010293	0.19117	5.2309	383.22	403.70	1.7226	0.78710	0.93982	146.48	29.910	1.1057e-05	0.012302
282.54	0.40628	12.379	0.080782	212.42	212.75	1.0456	0.89099	1.3685	578.48	-0.12330	0.00023666	0.087882	0.010223	0.19433	5.1458	383.49	403.98	1.7224	0.78860	0.94236	146.43	29.755	1.1076e-05	0.012347
283.04	0.41304	12.362	0.080891	213.09	213.42	1.0479	0.89163	1.3700	576.21	-0.12060	0.00023520	0.087667	0.010153	0.19750	5.0633	383.76	404.25	1.7222	0.79008	0.94488	146.39	29.603	1.1095e-05	0.012392
283.52	0.41981	12.346	0.081000	213.76	214.09	1.0503	0.89226	1.3716	573.97	-0.11791	0.00023377	0.087455	0.010085	0.20066	4.9835	384.02	404.53	1.7219	0.79155	0.94739	146.35	29.455	1.1113e-05	0.012436
284.00	0.42657	12.329	0.081107	214.41	214.75	1.0526	0.89288	1.3731	571.76	-0.11522	0.00023237	0.087245	0.010018	0.20383	4.9060	384.28	404.79	1.7217	0.79300	0.94988	146.30	29.311	1.1131e-05	0.012480
284.48	0.43334	12.313	0.081214	215.06	215.41	1.0549	0.89350	1.3746	569.57	-0.11253	0.00023099	0.087038	0.0099514	0.20700	4.8309	384.54	405.06	1.7215	0.79443	0.95236	146.26	29.169	1.1150e-05	0.012523
284.95	0.44010	12.297	0.081320	215.70	216.05	1.0571	0.89411	1.3762	567.41	-0.10985	0.00022964	0.086834	0.0098858	0.21017	4.7580	384.80	405.32	1.7213	0.79585	0.95482	146.21	29.030	1.1167e-05	0.012566
285.41	0.44687	12.281	0.081426	216.34	216.69	1.0593	0.89472	1.3777	565.28	-0.10716	0.00022831	0.086632	0.0098211	0.21334	4.6873	385.05	405.57	1.7211	0.79726	0.95727	146.16	28.894	1.1185e-05	0.012609
285.87	0.45363	12.265	0.081531	216.96	217.33	1.0615	0.89532	1.3792	563.16	-0.10448	0.00022701	0.086432	0.0097572	0.21652	4.6185	385.29	405.83	1.7209	0.79865	0.95971	146.12	28.762	1.1203e-05	0.012651
286.33	0.46040	12.250	0.081635	217.58	217.95	1.0637	0.89591	1.3807	561.08	-0.10181	0.00022573	0.086235	0.0096941	0.21970	4.5518	385.54	406.08	1.7207	0.80003	0.96214	146.07	28.631	1.1220e-05	0.012693
286.77	0.46716	12.234	0.081738	218.20	218.57	1.0659	0.89650	1.3822	559.01	-0.099129	0.00022447	0.086041	0.0096318	0.22287	4.4868	385.78	406.32	1.7206	0.80140	0.96455	146.02	28.504	1.1238e-05	0.012734
287.22	0.47393	12.219	0.081841	218.81	219.19	1.0680	0.89709	1.3837	556.97	-0.096453	0.00022323	0.085848	0.0095703	0.22605	4.4237	386.02	406.57	1.7204	0.80275	0.96696	145.97	28.379	1.1255e-05	0.012775
287.66	0.48069	12.204	0.081944	219.41	219.80	1.0701	0.89766	1.3852	554.95	-0.093778	0.00022202	0.085658	0.0095095	0.22924	4.3623	386.25	406.80	1.7202	0.80409	0.96935	145.91	28.256	1.1272e-05	0.012816
288.09	0.48746	12.188	0.082045	220.01	220.40	1.0722	0.89824	1.3867	552.95	-0.091104	0.00022082	0.085470	0.0094494	0.23242	4.3025	386.49	407.04	1.7200	0.80542	0.97173	145.86	28.136	1.1289e-05	0.012856
288.52	0.49422	12.173	0.082147	220.60	221.00	1.0742	0.89881	1.3881	550.97	-0.088431	0.00021964	0.085284	0.0093900	0.23561	4.2444	386.72	407.27	1.7198	0.80673	0.97411	145.81	28.018	1.1305e-05	0.012896
288.95	0.50099	12.158	0.082247	221.18	221.59	1.0762	0.89937	1.3896	549.01	-0.085758	0.00021848	0.085100	0.0093314	0.23880	4.1877	386.94	407.50	1.7197	0.80804	0.97647	145.75	27.903	1.1322e-05	0.012936
289.37	0.50775	12.144	0.082347	221.76	222.17	1.0782	0.89993	1.3911	547.07	-0.083085	0.00021734	0.084917	0.0092734	0.24199	4.1325	387.17	407.73	1.7195	0.80933	0.97882	145.70	27.789	1.1338e-05	0.012975
289.78	0.51452	12.129	0.082447	222.34	222.75	1.0802	0.90048	1.3926	545.14	-0.080412	0.00021622	0.084737	0.0092160	0.24518	4.0786	387.39	407.96	1.7193	0.81061	0.98117	145.64	27.678	1.1355e-05	0.013014
290.20	0.52128	12.115	0.082546	222.91	223.33	1.0822	0.90103	1.3940	543.24	-0.077739	0.00021511	0.084559	0.0091593	0.24838	4.0262	387.61	408.18	1.7192	0.81188	0.98350	145.59	27.569	1.1371e-05	0.013053
290.60	0.52805	12.100	0.082644	223.47	223.90	1.0841	0.90158	1.3955	541.36	-0.075065	0.00021402	0.084382	0.0091032	0.25157	3.9750	387.83	408.40	1.7190	0.81314	0.98583	145.53	27.461	1.1387e-05	0.013092
291.01	0.53481	12.086	0.082742	224.03	224.47	1.0861	0.90212	1.3970	539.49	-0.072390	0.00021295	0.084208	0.0090478	0.25477	3.9251	388.04	408.61	1.7189	0.81439	0.98815	145.47	27.356	1.1403e-05	0.013130
291.41	0.54157	12.071	0.082840	224.59	225.03	1.0880	0.90266	1.3984	537.64	-0.069715	0.00021189	0.084035	0.0089929	0.25798	3.8763	388.25	408.83	1.7187	0.81563	0.99046	145.42	27.252	1.1419e-05	0.013168
291.81	0.54834	12.057	0.082937	225.14	225.58	1.0899	0.90319	1.3999	535.81	-0.067038	0.00021085	0.083863	0.0089386	0.26118	3.8288	388.46	409.04	1.7185	0.81686	0.99276	145.36	27.151	1.1435e-05	0.013206
292.20	0.55510	12.043	0.083033	225.68	226.13	1.0917	0.90372	1.4013	534.00	-0.064361	0.00020983	0.083694	0.0088849	0.26439	3.7823	388.67	409.25	1.7184	0.81808	0.99506	145.30	27.051	1.1450e-05	0.013244
292.59	0.56187	12.029	0.083130	226.22	226.68	1.0936	0.90425	1.4028	532.20	-0.061682	0.00020881	0.083526	0.0088318	0.26760	3.7370	388.87	409.45	1.7183	0.81929	0.99734	145.24	26.953	1.1466e-05	0.013281
292.98	0.56863	12.016	0.083225	226.76	227.22	1.0954	0.90477	1.4042	530.41	-0.059001	0.00020782	0.083359	0.0087792	0.27081	3.6926	389.08	409.66	1.7181	0.82049	0.99963	145.18	26.856	1.1481e-05	0.013318
293.36	0.57540	12.002	0.083321	227.29	227.76	1.0972	0.90529	1.4056	528.65	-0.056319	0.00020683	0.083194	0.0087271	0.27403	3.6493	389.28	409.86	1.7180	0.82168	1.0019	145.12	26.761	1.1497e-05	0.013355
293.74	0.58216	11.988	0.083416	227.82	228.29	1.0990	0.90580	1.4071	526.89	-0.053634	0.00020586	0.083031	0.0086756	0.27724	3.6069	389.48	410.06	1.7178	0.82286	1.0042	145.05	26.668	1.1512e-05	0.013391
294.11	0.58893	11.975	0.083510	228.34	228.82	1.1008	0.90631	1.4085	525.16	-0.050948	0.00020490	0.082869	0.0086245	0.28046	3.5655	389.67	410.25	1.7177	0.82403	1.0064	144.99	26.576	1.1527e-05	0.013428
294.49	0.59569	11.961	0.083604	228.86	229.35	1.1026	0.90682	1.4099	523.43	-0.048259	0.00020396	0.082709	0.0085740	0.28369	3.5250	389.87	410.45	1.7175	0.82520	1.0087	144.93	26.486	1.1542e-05	0.013464
294.86	0.60246	11.948	0.083698	229.38	229.87	1.1043	0.90733	1.4114	521.72	-0.045568	0.00020302	0.082550	0.0085240	0.28691	3.4854	390.06	410.64	1.7174	0.82635	1.0109	144.87	26.397	1.1557e-05	0.013500
295.22	0.60922	11.934	0.083792	229.89	230.39	1.1061	0.90783	1.4128	520.03	-0.042875	0.00020210	0.082392	0.0084744	0.29014	3.4466	390.25	410.83	1.7173	0.82750	1.0132	144.80	26.310	1.1572e-05	0.013535
295.59	0.61599	11.921	0.083885	230.40	230.90	1.1078	0.90832	1.4142	518.35	-0.040178	0.00020119	0.082236	0.0084253	0.29337	3.4086	390.44	411.02	1.7171	0.82864	1.0154	144.74	26.224	1.1587e-05	0.013571
295.95	0.62275	11.908	0.083977	230.90	231.41	1.1095	0.90882	1.4157	516.68	-0.037479	0.00020030	0.082081	0.0083767	0.29661	3.3715	390.63	411.21	1.7170	0.82977	1.0177	144.67	26.139	1.1602e-05	0.013606
296.30	0.62952	11.895	0.084070	231.40	231.92	1.1112	0.90931	1.4171	515.03	-0.034777	0.00019941	0.081928	0.0083286	0.29984	3.3351	390.81	411.39	1.7169	0.83090	1.0199	144.61	26.056	1.1616e-05	0.013641
296.66	0.63628	11.882	0.084162	231.90	232.42	1.1129	0.90980	1.4185	513.39	-0.032072	0.00019853	0.081775	0.0082809	0.30308	3.2994	391.00	411.57	1.7168	0.83202	1.0221	144.54	25.974	1.1631e-05	0.013676
297.01	0.64305	11.869	0.084253	232.39	232.92	1.1145	0.91028	1.4199	511.76	-0.029364	0.00019767	0.081624	0.0082336	0.30633	3.2645	391.18	411.75	1.7166	0.83312	1.0243	144.48	25.893	1.1645e-05	0.013711
297.36	0.64981	11.856	0.084345	232.88	233.42	1.1162	0.91077	1.4213	510.14	-0.026652	0.00019681	0.081475	0.0081867	0.30957	3.2302	391.36	411.93	1.7165	0.83423	1.0266	144.41	25.814	1.1660e-05	0.013746
297.70	0.65658	11.843	0.084436	233.37	233.91	1.1178	0.91124	1.4228	508.54	-0.023937	0.00019597	0.081326	0.0081403	0.31282	3.1967	391.54	412.11	1.7164	0.83532	1.0288	144.34	25.735	1.1674e-05	0.013780
298.05	0.66334	11.831	0.084526	233.85	234.40	1.1194	0.91172	1.4242	506.95	-0.021218	0.00019514	0.081179	0.0080943	0.31608	3.1638	391.71	412.28	1.7163	0.83641	1.0310	144.28	25.658	1.1689e-05	0.013814
298.39	0.67011	11.818	0.084617	234.33	234.88	1.1210	0.91219	1.4256	505.37	-0.018496	0.00019431	0.081032	0.0080487	0.31933	3.1315	391.89	412.45	1.7161	0.83749	1.0332	144.21	25.582	1.1703e-05	0.013849
298.73	0.67687	11.805	0.084707	234.81	235.37	1.1226	0.91267	1.4270	503.80	-0.015769	0.00019350	0.080887	0.0080035	0.32259	3.0999	392.06	412.63	1.7160	0.83856	1.0354	144.14	25.507	1.1717e-05	0.013882
299.06	0.68364	11.793	0.084797	235.28	235.85	1.1242	0.91313	1.4284	502.24	-0.013039	0.00019269	0.080743	0.0079587	0.32585	3.0689	392.23	412.79	1.7159	0.83963	1.0376	144.07	25.433	1.1731e-05	0.013916
299.39	0.69040	11.780	0.084887	235.75	236.32	1.1258	0.91360	1.4298	500.70	-0.010305	0.00019189	0.080600	0.0079143	0.32912	3.0384	392.40	412.96	1.7158	0.84069	1.0398	144.00	25.361	1.1745e-05	0.013950
299.73	0.69717	11.768	0.084976	236.22	236.80	1.1274	0.91406	1.4313	499.16	-0.0075659	0.00019111	0.080459	0.0078702	0.33238	3.0086	392.57	413.13	1.7157	0.84174	1.0420	143.93	25.289	1.1759e-05	0.013983
300.05	0.70393	11.756	0.085065	236.68	237.27	1.1289	0.91452	1.4327	497.64	-0.0048229	0.00019033	0.080318	0.0078265	0.33566	2.9792	392.74	413.29	1.7156	0.84279	1.0442	143.86	25.218	1.1773e-05	0.014017
300.38	0.71070	11.743	0.085154	237.14	237.73	1.1304	0.91498	1.4341	496.13	-0.0020754	0.00018956	0.080178	0.0077832	0.33893	2.9505	392.90	413.46	1.7154	0.84383	1.0463	143.79	25.149	1.1787e-05	0.014050
300.70	0.71746	11.731	0.085242	237.60	238.20	1.1320	0.91544	1.4355	494.62	0.00067669	0.00018880	0.080040	0.0077403	0.34221	2.9222	393.07	413.62	1.7153	0.84487	1.0485	143.72	25.080	1.1801e-05	0.014083
301.02	0.72423	11.719	0.085331	238.05	238.66	1.1335	0.91589	1.4369	493.13	0.0034334	0.00018804	0.079902	0.0076976	0.34549	2.8944	393.23	413.78	1.7152	0.84589	1.0507	143.65	25.012	1.1815e-05	0.014116
301.34	0.73099	11.707	0.085419	238.51	239.12	1.1350	0.91634	1.4383	491.65	0.0061949	0.00018730	0.079765	0.0076554	0.34877	2.8672	393.39	413.93	1.7151	0.84692	1.0529	143.58	24.946	1.1828e-05	0.014149
301.66	0.73775	11.695	0.085506	238.96	239.57	1.1365	0.91679	1.4397	490.17	0.0089614	0.00018656	0.079630	0.0076135	0.35206	2.8404	393.55	414.09	1.7150	0.84793	1.0551	143.51	24.880	1.1842e-05	0.014181
301.97	0.74452	11.683	0.085594	239.40	240.03	1.1380	0.91723	1.4411	488.71	0.011733	0.00018583	0.079495	0.0075719	0.35535	2.8141	393.71	414.24	1.7149	0.84895	1.0572	143.44	24.815	1.1855e-05	0.014214
302.29	0.75128	11.671	0.085681	239.85	240.48	1.1394	0.91768	1.4425	487.26	0.014509	0.00018511	0.079361	0.0075306	0.35865	2.7882	393.87	414.40	1.7148	0.84995	1.0594	143.37	24.751	1.1869e-05	0.014246
302.60	0.75805	11.659	0.085769	240.29	240.92	1.1409	0.91812	1.4439	485.81	0.017291	0.00018439	0.079228	0.0074897	0.36195	2.7628	394.02	414.55	1.7147	0.85095	1.0616	143.30	24.687	1.1883e-05	0.014278
302.91	0.76481	11.647	0.085855	240.73	241.37	1.1424	0.91856	1.4454	484.38	0.020078	0.00018368	0.079096	0.0074491	0.36525	2.7379	394.18	414.70	1.7146	0.85195	1.0638	143.22	24.625	1.1896e-05	0.014311
303.21	0.77158	11.636	0.085942	241.16	241.81	1.1438	0.91899	1.4468	482.95	0.022871	0.00018298	0.078965	0.0074088	0.36855	2.7133	394.33	414.85	1.7145	0.85294	1.0659	143.15	24.564	1.1909e-05	0.014343
303.52	0.77834	11.624	0.086029	241.60	242.25	1.1452	0.91943	1.4482	481.53	0.025669	0.00018229	0.078835	0.0073688	0.37186	2.6892	394.48	415.00	1.7144	0.85392	1.0681	143.08	24.503	1.1923e-05	0.014375
303.82	0.78511	11.612	0.086115	242.03	242.69	1.1466	0.91986	1.4496	480.13	0.028472	0.00018160	0.078706	0.0073292	0.37517	2.6654	394.63	415.14	1.7143	0.85490	1.0703	143.00	24.443	1.1936e-05	0.014406
304.12	0.79187	11.601	0.086201	242.46	243.13	1.1481	0.92029	1.4510	478.73	0.031282	0.00018092	0.078577	0.0072898	0.37849	2.6421	394.78	415.29	1.7142	0.85587	1.0724	142.93	24.384	1.1949e-05	0.014438
304.42	0.79864	11.589	0.086287	242.88	243.56	1.1495	0.92072	1.4524	477.34	0.034097	0.00018025	0.078450	0.0072507	0.38181	2.6191	394.93	415.43	1.7141	0.85684	1.0746	142.86	24.325	1.1963e-05	0.014470
304.71	0.80540	11.578	0.086373	243.31	243.99	1.1509	0.92115	1.4538	475.95	0.036918	0.00017958	0.078323	0.0072119	0.38513	2.5965	395.08	415.57	1.7140	0.85780	1.0768	142.78	24.268	1.1976e-05	0.014501
305.01	0.81217	11.566	0.086458	243.73	244.42	1.1522	0.92157	1.4552	474.58	0.039745	0.00017892	0.078197	0.0071734	0.38846	2.5743	395.22	415.71	1.7139	0.85876	1.0789	142.71	24.211	1.1989e-05	0.014533
305.30	0.81893	11.555	0.086544	244.15	244.84	1.1536	0.92200	1.4566	473.21	0.042578	0.00017827	0.078071	0.0071352	0.39179	2.5524	395.37	415.85	1.7138	0.85972	1.0811	142.63	24.155	1.2002e-05	0.014564
305.59	0.82570	11.543	0.086629	244.57	245.27	1.1550	0.92242	1.4580	471.86	0.045418	0.00017762	0.077947	0.0070973	0.39513	2.5308	395.51	415.99	1.7137	0.86067	1.0832	142.56	24.099	1.2015e-05	0.014595
305.88	0.83246	11.532	0.086714	244.98	245.69	1.1564	0.92284	1.4595	470.51	0.048263	0.00017698	0.077823	0.0070596	0.39846	2.5096	395.65	416.13	1.7136	0.86161	1.0854	142.48	24.044	1.2028e-05	0.014626
306.17	0.83923	11.521	0.086799	245.39	246.11	1.1577	0.92325	1.4609	469.16	0.051115	0.00017634	0.077700	0.0070222	0.40181	2.4888	395.79	416.26	1.7135	0.86255	1.0876	142.40	23.990	1.2041e-05	0.014657
306.45	0.84599	11.510	0.086883	245.80	246.52	1.1590	0.92367	1.4623	467.83	0.053974	0.00017571	0.077578	0.0069851	0.40515	2.4682	395.93	416.40	1.7134	0.86349	1.0897	142.33	23.937	1.2054e-05	0.014688
306.74	0.85276	11.498	0.086968	246.21	246.94	1.1604	0.92408	1.4637	466.50	0.056839	0.00017508	0.077457	0.0069482	0.40850	2.4480	396.07	416.53	1.7133	0.86442	1.0919	142.25	23.884	1.2067e-05	0.014719
307.02	0.85952	11.487	0.087052	246.62	247.35	1.1617	0.92450	1.4651	465.18	0.059711	0.00017446	0.077336	0.0069116	0.41186	2.4280	396.21	416.66	1.7132	0.86534	1.0940	142.18	23.832	1.2080e-05	0.014750
307.30	0.86629	11.476	0.087137	247.02	247.76	1.1630	0.92491	1.4665	463.87	0.062590	0.00017385	0.077216	0.0068752	0.41521	2.4084	396.35	416.80	1.7131	0.86626	1.0962	142.10	23.780	1.2093e-05	0.014781
307.58	0.87305	11.465	0.087221	247.43	248.17	1.1643	0.92532	1.4680	462.57	0.065475	0.00017324	0.077097	0.0068391	0.41858	2.3891	396.48	416.93	1.7130	0.86718	1.0984	142.02	23.729	1.2106e-05	0.014811
307.86	0.87982	11.454	0.087305	247.83	248.58	1.1656	0.92572	1.4694	461.27	0.068368	0.00017264	0.076978	0.0068033	0.42194	2.3700	396.62	417.05	1.7129	0.86810	1.1005	141.94	23.679	1.2119e-05	0.014842
308.13	0.88658	11.443	0.087388	248.22	248.98	1.1669	0.92613	1.4708	459.98	0.071267	0.00017204	0.076860	0.0067677	0.42531	2.3512	396.75	417.18	1.7128	0.86901	1.1027	141.87	23.629	1.2132e-05	0.014872
308.41	0.89335	11.432	0.087472	248.62	249.39	1.1682	0.92653	1.4722	458.69	0.074174	0.00017145	0.076743	0.0067323	0.42868	2.3327	396.88	417.31	1.7127	0.86991	1.1049	141.79	23.580	1.2144e-05	0.014903
308.68	0.90011	11.421	0.087556	249.01	249.79	1.1695	0.92693	1.4736	457.42	0.077088	0.00017086	0.076627	0.0066972	0.43206	2.3145	397.01	417.43	1.7126	0.87081	1.1070	141.71	23.532	1.2157e-05	0.014933
308.95	0.90688	11.410	0.087639	249.41	250.19	1.1708	0.92733	1.4751	456.15	0.080009	0.00017028	0.076511	0.0066623	0.43544	2.2965	397.15	417.56	1.7125	0.87171	1.1092	141.63	23.484	1.2170e-05	0.014963
309.22	0.91364	11.400	0.087722	249.80	250.58	1.1720	0.92773	1.4765	454.88	0.082937	0.00016970	0.076396	0.0066276	0.43883	2.2788	397.27	417.68	1.7124	0.87260	1.1114	141.56	23.436	1.2183e-05	0.014994
309.49	0.92040	11.389	0.087805	250.19	250.98	1.1733	0.92813	1.4779	453.63	0.085873	0.00016912	0.076281	0.0065932	0.44222	2.2613	397.40	417.80	1.7123	0.87349	1.1135	141.48	23.390	1.2195e-05	0.015024
309.76	0.92717	11.378	0.087888	250.57	251.37	1.1745	0.92853	1.4794	452.38	0.088817	0.00016856	0.076167	0.0065590	0.44561	2.2441	397.53	417.92	1.7122	0.87438	1.1157	141.40	23.343	1.2208e-05	0.015054
310.02	0.93393	11.367	0.087971	250.96	251.76	1.1758	0.92892	1.4808	451.13	0.091768	0.00016799	0.076054	0.0065250	0.44901	2.2271	397.66	418.04	1.7121	0.87526	1.1179	141.32	23.298	1.2220e-05	0.015084
310.28	0.94070	11.357	0.088054	251.34	252.15	1.1770	0.92931	1.4822	449.90	0.094727	0.00016743	0.075941	0.0064913	0.45241	2.2104	397.78	418.16	1.7121	0.87614	1.1200	141.24	23.252	1.2233e-05	0.015114
310.55	0.94746	11.346	0.088137	251.72	252.54	1.1783	0.92971	1.4837	448.67	0.097694	0.00016688	0.075829	0.0064577	0.45582	2.1939	397.91	418.28	1.7120	0.87701	1.1222	141.16	23.208	1.2246e-05	0.015144
310.81	0.95423	11.335	0.088219	252.10	252.93	1.1795	0.93010	1.4851	447.44	0.10067	0.00016633	0.075717	0.0064244	0.45923	2.1776	398.03	418.40	1.7119	0.87788	1.1244	141.08	23.163	1.2258e-05	0.015174
311.07	0.96099	11.325	0.088302	252.48	253.31	1.1807	0.93049	1.4865	446.22	0.10365	0.00016578	0.075606	0.0063913	0.46264	2.1615	398.15	418.51	1.7118	0.87875	1.1266	141.00	23.120	1.2271e-05	0.015203
311.33	0.96776	11.314	0.088384	252.86	253.69	1.1819	0.93087	1.4880	445.01	0.10664	0.00016524	0.075496	0.0063584	0.46606	2.1456	398.28	418.63	1.7117	0.87961	1.1287	140.92	23.076	1.2283e-05	0.015233
311.58	0.97452	11.304	0.088466	253.23	254.07	1.1831	0.93126	1.4894	443.80	0.10964	0.00016470	0.075386	0.0063257	0.46949	2.1300	398.40	418.74	1.7116	0.88048	1.1309	140.84	23.034	1.2296e-05	0.015263
311.84	0.98129	11.293	0.088549	253.60	254.45	1.1843	0.93164	1.4908	442.60	0.11265	0.00016417	0.075277	0.0062932	0.47291	2.1145	398.52	418.85	1.7115	0.88133	1.1331	140.76	22.991	1.2308e-05	0.015292
312.09	0.98805	11.283	0.088631	253.97	254.83	1.1855	0.93203	1.4923	441.41	0.11566	0.00016364	0.075168	0.0062609	0.47635	2.0993	398.64	418.97	1.7114	0.88219	1.1353	140.68	22.950	1.2321e-05	0.015322
312.34	0.99482	11.272	0.088713	254.34	255.21	1.1867	0.93241	1.4937	440.22	0.11869	0.00016311	0.075060	0.0062288	0.47978	2.0843	398.76	419.08	1.7113	0.88304	1.1375	140.60	22.908	1.2333e-05	0.015351
312.60	1.0016	11.262	0.088794	254.71	255.58	1.1879	0.93279	1.4952	439.03	0.12172	0.00016259	0.074952	0.0061969	0.48322	2.0694	398.87	419.19	1.7113	0.88388	1.1396	140.52	22.867	1.2345e-05	0.015381
312.85	1.0083	11.252	0.088876	255.08	255.96	1.1891	0.93317	1.4966	437.85	0.12476	0.00016207	0.074845	0.0061652	0.48667	2.0548	398.99	419.30	1.7112	0.88473	1.1418	140.44	22.827	1.2358e-05	0.015410
313.10	1.0151	11.241	0.088958	255.44	256.33	1.1902	0.93355	1.4981	436.68	0.12781	0.00016156	0.074739	0.0061337	0.49012	2.0403	399.11	419.40	1.7111	0.88557	1.1440	140.35	22.787	1.2370e-05	0.015440
313.34	1.0219	11.231	0.089040	255.81	256.70	1.1914	0.93393	1.4995	435.51	0.13087	0.00016105	0.074633	0.0061024	0.49357	2.0260	399.22	419.51	1.7110	0.88641	1.1462	140.27	22.747	1.2383e-05	0.015469
313.59	1.0286	11.221	0.089121	256.17	257.07	1.1925	0.93430	1.5010	434.35	0.13394	0.00016054	0.074527	0.0060713	0.49703	2.0119	399.34	419.62	1.7109	0.88724	1.1484	140.19	22.708	1.2395e-05	0.015499
313.84	1.0354	11.210	0.089203	256.53	257.43	1.1937	0.93468	1.5025	433.20	0.13701	0.00016004	0.074423	0.0060403	0.50050	1.9980	399.45	419.72	1.7108	0.88807	1.1506	140.11	22.669	1.2407e-05	0.015528
314.08	1.0422	11.200	0.089284	256.89	257.80	1.1948	0.93505	1.5039	432.05	0.14010	0.00015954	0.074318	0.0060096	0.50396	1.9843	399.56	419.83	1.7107	0.88890	1.1528	140.03	22.631	1.2420e-05	0.015557
314.32	1.0489	11.190	0.089365	257.24	258.16	1.1960	0.93542	1.5054	430.90	0.14319	0.00015905	0.074214	0.0059790	0.50744	1.9707	399.67	419.93	1.7106	0.88972	1.1550	139.95	22.593	1.2432e-05	0.015586
314.56	1.0557	11.180	0.089446	257.60	258.53	1.1971	0.93579	1.5069	429.76	0.14630	0.00015856	0.074111	0.0059486	0.51091	1.9573	399.78	420.04	1.7106	0.89055	1.1572	139.86	22.556	1.2444e-05	0.015616
314.80	1.0625	11.170	0.089528	257.96	258.89	1.1982	0.93616	1.5083	428.62	0.14941	0.00015807	0.074008	0.0059184	0.51440	1.9440	399.89	420.14	1.7105	0.89137	1.1595	139.78	22.518	1.2457e-05	0.015645
315.04	1.0692	11.160	0.089609	258.31	259.25	1.1994	0.93653	1.5098	427.49	0.15253	0.00015758	0.073905	0.0058883	0.51788	1.9309	400.00	420.24	1.7104	0.89218	1.1617	139.70	22.482	1.2469e-05	0.015674
315.28	1.0760	11.150	0.089690	258.66	259.61	1.2005	0.93690	1.5113	426.37	0.15567	0.00015710	0.073803	0.0058584	0.52137	1.9180	400.11	420.34	1.7103	0.89300	1.1639	139.61	22.445	1.2481e-05	0.015703
315.52	1.0828	11.139	0.089771	259.01	259.96	1.2016	0.93727	1.5128	425.24	0.15881	0.00015662	0.073702	0.0058287	0.52487	1.9052	400.22	420.44	1.7102	0.89381	1.1661	139.53	22.409	1.2493e-05	0.015732
315.76	1.0895	11.129	0.089852	259.36	260.32	1.2027	0.93763	1.5142	424.13	0.16196	0.00015615	0.073601	0.0057992	0.52837	1.8926	400.33	420.54	1.7101	0.89462	1.1683	139.45	22.374	1.2506e-05	0.015761
315.99	1.0963	11.119	0.089933	259.71	260.67	1.2038	0.93800	1.5157	423.02	0.16512	0.00015568	0.073500	0.0057699	0.53188	1.8801	400.43	420.64	1.7100	0.89542	1.1706	139.36	22.338	1.2518e-05	0.015790
316.22	1.1031	11.109	0.090013	260.05	261.03	1.2049	0.93836	1.5172	421.91	0.16829	0.00015521	0.073400	0.0057407	0.53539	1.8678	400.54	420.73	1.7099	0.89622	1.1728	139.28	22.304	1.2530e-05	0.015819
316.46	1.1098	11.100	0.090094	260.40	261.38	1.2060	0.93873	1.5187	420.81	0.17147	0.00015474	0.073300	0.0057116	0.53890	1.8556	400.65	420.83	1.7099	0.89702	1.1750	139.20	22.269	1.2542e-05	0.015848
316.69	1.1166	11.090	0.090175	260.74	261.73	1.2071	0.93909	1.5202	419.71	0.17466	0.00015428	0.073201	0.0056828	0.54242	1.8436	400.75	420.93	1.7098	0.89782	1.1773	139.11	22.235	1.2555e-05	0.015877
316.92	1.1233	11.080	0.090255	261.08	262.08	1.2082	0.93945	1.5217	418.62	0.17786	0.00015382	0.073102	0.0056540	0.54595	1.8317	400.85	421.02	1.7097	0.89862	1.1795	139.03	22.201	1.2567e-05	0.015906
317.15	1.1301	11.070	0.090336	261.42	262.42	1.2092	0.93981	1.5232	417.53	0.18107	0.00015337	0.073003	0.0056255	0.54948	1.8199	400.96	421.11	1.7096	0.89941	1.1818	138.95	22.168	1.2579e-05	0.015935
317.38	1.1369	11.060	0.090417	261.76	262.77	1.2103	0.94017	1.5247	416.45	0.18429	0.00015291	0.072905	0.0055971	0.55301	1.8083	401.06	421.21	1.7095	0.90020	1.1840	138.86	22.134	1.2591e-05	0.015964
317.61	1.1436	11.050	0.090497	262.10	263.12	1.2114	0.94052	1.5262	415.37	0.18752	0.00015246	0.072808	0.0055689	0.55655	1.7968	401.16	421.30	1.7094	0.90098	1.1863	138.78	22.102	1.2603e-05	0.015993
317.83	1.1504	11.040	0.090578	262.44	263.46	1.2125	0.94088	1.5277	414.29	0.19077	0.00015202	0.072711	0.0055408	0.56009	1.7854	401.26	421.39	1.7094	0.90177	1.1885	138.69	22.069	1.2616e-05	0.016021
318.06	1.1572	11.030	0.090658	262.78	263.80	1.2135	0.94124	1.5292	413.22	0.19402	0.00015157	0.072614	0.0055129	0.56364	1.7742	401.36	421.48	1.7093	0.90255	1.1908	138.61	22.037	1.2628e-05	0.016050
318.28	1.1639	11.021	0.090738	263.11	264.15	1.2146	0.94159	1.5307	412.16	0.19728	0.00015113	0.072518	0.0054851	0.56720	1.7631	401.46	421.57	1.7092	0.90333	1.1931	138.52	22.005	1.2640e-05	0.016079
318.51	1.1707	11.011	0.090819	263.44	264.49	1.2156	0.94195	1.5322	411.09	0.20055	0.00015069	0.072422	0.0054575	0.57076	1.7521	401.56	421.66	1.7091	0.90411	1.1953	138.44	21.974	1.2652e-05	0.016108
318.73	1.1775	11.001	0.090899	263.78	264.83	1.2167	0.94230	1.5338	410.04	0.20384	0.00015026	0.072326	0.0054300	0.57432	1.7412	401.66	421.75	1.7090	0.90488	1.1976	138.35	21.942	1.2664e-05	0.016137
318.95	1.1842	10.991	0.090979	264.11	265.16	1.2177	0.94265	1.5353	408.98	0.20713	0.00014982	0.072231	0.0054027	0.57789	1.7304	401.75	421.84	1.7089	0.90566	1.1999	138.27	21.911	1.2676e-05	0.016166
319.17	1.1910	10.982	0.091060	264.44	265.50	1.2187	0.94300	1.5368	407.93	0.21044	0.00014939	0.072136	0.0053755	0.58147	1.7198	401.85	421.93	1.7088	0.90643	1.2022	138.18	21.881	1.2689e-05	0.016194
319.39	1.1978	10.972	0.091140	264.77	265.84	1.2198	0.94335	1.5383	406.89	0.21376	0.00014896	0.072042	0.0053484	0.58505	1.7093	401.95	422.01	1.7088	0.90720	1.2045	138.09	21.851	1.2701e-05	0.016223
319.61	1.2045	10.962	0.091220	265.09	266.17	1.2208	0.94370	1.5399	405.85	0.21708	0.00014854	0.071948	0.0053215	0.58863	1.6989	402.04	422.10	1.7087	0.90796	1.2068	138.01	21.821	1.2713e-05	0.016252
319.83	1.2113	10.953	0.091300	265.42	266.50	1.2218	0.94405	1.5414	404.81	0.22042	0.00014812	0.071855	0.0052948	0.59222	1.6886	402.14	422.18	1.7086	0.90872	1.2091	137.92	21.791	1.2725e-05	0.016281
320.05	1.2181	10.943	0.091381	265.75	266.84	1.2229	0.94440	1.5429	403.78	0.22377	0.00014770	0.071761	0.0052681	0.59582	1.6784	402.23	422.27	1.7085	0.90949	1.2114	137.84	21.761	1.2737e-05	0.016309
320.26	1.2248	10.934	0.091461	266.07	267.17	1.2239	0.94475	1.5445	402.75	0.22714	0.00014728	0.071669	0.0052417	0.59942	1.6683	402.33	422.35	1.7084	0.91025	1.2137	137.75	21.732	1.2749e-05	0.016338
320.48	1.2316	10.924	0.091541	266.39	267.50	1.2249	0.94509	1.5460	401.72	0.23051	0.00014686	0.071576	0.0052153	0.60303	1.6583	402.42	422.44	1.7083	0.91100	1.2160	137.66	21.703	1.2762e-05	0.016367
320.69	1.2384	10.915	0.091621	266.72	267.83	1.2259	0.94544	1.5476	400.70	0.23390	0.00014645	0.071484	0.0051891	0.60664	1.6484	402.51	422.52	1.7082	0.91176	1.2183	137.58	21.675	1.2774e-05	0.016396
320.91	1.2451	10.905	0.091701	267.04	268.16	1.2269	0.94578	1.5491	399.68	0.23729	0.00014604	0.071392	0.0051630	0.61025	1.6387	402.60	422.60	1.7082	0.91251	1.2206	137.49	21.646	1.2786e-05	0.016425
321.12	1.2519	10.895	0.091781	267.36	268.48	1.2279	0.94613	1.5507	398.67	0.24070	0.00014563	0.071301	0.0051371	0.61388	1.6290	402.69	422.68	1.7081	0.91326	1.2230	137.40	21.618	1.2798e-05	0.016453
321.33	1.2586	10.886	0.091861	267.68	268.81	1.2289	0.94647	1.5523	397.66	0.24412	0.00014523	0.071210	0.0051113	0.61750	1.6194	402.78	422.76	1.7080	0.91401	1.2253	137.32	21.591	1.2810e-05	0.016482
321.54	1.2654	10.877	0.091941	267.99	269.13	1.2299	0.94681	1.5538	396.65	0.24755	0.00014482	0.071119	0.0050856	0.62114	1.6099	402.87	422.84	1.7079	0.91476	1.2277	137.23	21.563	1.2822e-05	0.016511
321.75	1.2722	10.867	0.092021	268.31	269.46	1.2309	0.94716	1.5554	395.65	0.25100	0.00014442	0.071029	0.0050600	0.62478	1.6006	402.96	422.92	1.7078	0.91550	1.2300	137.14	21.536	1.2835e-05	0.016540
321.96	1.2789	10.858	0.092101	268.63	269.78	1.2319	0.94750	1.5570	394.65	0.25446	0.00014402	0.070939	0.0050346	0.62842	1.5913	403.05	423.00	1.7077	0.91625	1.2324	137.06	21.509	1.2847e-05	0.016568
322.17	1.2857	10.848	0.092181	268.94	270.10	1.2328	0.94784	1.5586	393.65	0.25792	0.00014363	0.070849	0.0050093	0.63207	1.5821	403.14	423.08	1.7077	0.91699	1.2347	136.97	21.482	1.2859e-05	0.016597
322.38	1.2925	10.839	0.092261	269.26	270.42	1.2338	0.94818	1.5602	392.66	0.26141	0.00014323	0.070760	0.0049842	0.63573	1.5730	403.23	423.15	1.7076	0.91772	1.2371	136.88	21.455	1.2871e-05	0.016626
322.58	1.2992	10.829	0.092341	269.57	270.74	1.2348	0.94852	1.5617	391.67	0.26490	0.00014284	0.070671	0.0049591	0.63939	1.5640	403.31	423.23	1.7075	0.91846	1.2395	136.79	21.429	1.2883e-05	0.016655
322.79	1.3060	10.820	0.092421	269.88	271.06	1.2358	0.94885	1.5633	390.68	0.26841	0.00014245	0.070582	0.0049342	0.64305	1.5551	403.40	423.31	1.7074	0.91920	1.2419	136.71	21.403	1.2895e-05	0.016684
322.99	1.3128	10.811	0.092502	270.19	271.38	1.2367	0.94919	1.5649	389.70	0.27192	0.00014207	0.070494	0.0049094	0.64672	1.5463	403.49	423.38	1.7073	0.91993	1.2442	136.62	21.377	1.2908e-05	0.016712
323.20	1.3195	10.801	0.092582	270.50	271.70	1.2377	0.94953	1.5665	388.72	0.27546	0.00014168	0.070406	0.0048847	0.65040	1.5375	403.57	423.45	1.7072	0.92066	1.2466	136.53	21.352	1.2920e-05	0.016741
323.40	1.3263	10.792	0.092662	270.81	272.02	1.2386	0.94987	1.5681	387.75	0.27900	0.00014130	0.070318	0.0048602	0.65408	1.5289	403.66	423.53	1.7071	0.92139	1.2490	136.44	21.327	1.2932e-05	0.016770
323.61	1.3331	10.783	0.092742	271.12	272.33	1.2396	0.95020	1.5697	386.77	0.28256	0.00014092	0.070231	0.0048357	0.65777	1.5203	403.74	423.60	1.7071	0.92212	1.2514	136.35	21.301	1.2944e-05	0.016799
323.81	1.3398	10.773	0.092822	271.43	272.65	1.2406	0.95054	1.5714	385.80	0.28613	0.00014054	0.070144	0.0048114	0.66147	1.5118	403.82	423.67	1.7070	0.92285	1.2539	136.27	21.277	1.2956e-05	0.016828
324.01	1.3466	10.764	0.092902	271.73	272.96	1.2415	0.95087	1.5730	384.84	0.28971	0.00014016	0.070057	0.0047872	0.66517	1.5034	403.91	423.75	1.7069	0.92357	1.2563	136.18	21.252	1.2969e-05	0.016857
324.21	1.3534	10.755	0.092982	272.04	273.27	1.2424	0.95120	1.5746	383.88	0.29331	0.00013978	0.069970	0.0047631	0.66887	1.4950	403.99	423.82	1.7068	0.92429	1.2587	136.09	21.228	1.2981e-05	0.016886
324.41	1.3601	10.746	0.093062	272.34	273.58	1.2434	0.95154	1.5762	382.92	0.29692	0.00013941	0.069884	0.0047391	0.67259	1.4868	404.07	423.89	1.7067	0.92501	1.2611	136.00	21.203	1.2993e-05	0.016914
324.61	1.3669	10.736	0.093142	272.65	273.89	1.2443	0.95187	1.5779	381.96	0.30054	0.00013904	0.069798	0.0047153	0.67630	1.4786	404.15	423.96	1.7066	0.92573	1.2636	135.91	21.179	1.3005e-05	0.016943
324.81	1.3736	10.727	0.093222	272.95	274.20	1.2453	0.95220	1.5795	381.01	0.30418	0.00013867	0.069713	0.0046915	0.68003	1.4705	404.23	424.03	1.7065	0.92645	1.2660	135.82	21.156	1.3017e-05	0.016972
325.00	1.3804	10.718	0.093302	273.25	274.51	1.2462	0.95253	1.5812	380.06	0.30783	0.00013830	0.069628	0.0046679	0.68376	1.4625	404.31	424.10	1.7065	0.92717	1.2685	135.73	21.132	1.3030e-05	0.017001
325.20	1.3872	10.709	0.093382	273.55	274.82	1.2471	0.95286	1.5828	379.11	0.31149	0.00013794	0.069543	0.0046444	0.68749	1.4546	404.39	424.17	1.7064	0.92788	1.2709	135.64	21.109	1.3042e-05	0.017030
325.40	1.3939	10.699	0.093462	273.85	275.13	1.2480	0.95319	1.5845	378.17	0.31517	0.00013758	0.069458	0.0046210	0.69123	1.4467	404.47	424.24	1.7063	0.92859	1.2734	135.55	21.086	1.3054e-05	0.017059
325.59	1.4007	10.690	0.093543	274.15	275.43	1.2490	0.95352	1.5861	377.23	0.31887	0.00013721	0.069373	0.0045977	0.69498	1.4389	404.55	424.30	1.7062	0.92931	1.2759	135.46	21.063	1.3066e-05	0.017088
325.79	1.4075	10.681	0.093623	274.45	275.74	1.2499	0.95385	1.5878	376.29	0.32257	0.00013685	0.069289	0.0045745	0.69874	1.4312	404.63	424.37	1.7061	0.93001	1.2784	135.38	21.040	1.3079e-05	0.017117
325.98	1.4142	10.672	0.093703	274.75	276.04	1.2508	0.95418	1.5894	375.35	0.32629	0.00013650	0.069206	0.0045514	0.70250	1.4235	404.71	424.44	1.7060	0.93072	1.2809	135.29	21.018	1.3091e-05	0.017146
326.17	1.4210	10.663	0.093783	275.04	276.35	1.2517	0.95451	1.5911	374.42	0.33003	0.00013614	0.069122	0.0045284	0.70626	1.4159	404.78	424.50	1.7059	0.93143	1.2834	135.20	20.995	1.3103e-05	0.017176
326.37	1.4278	10.654	0.093864	275.34	276.65	1.2526	0.95484	1.5928	373.49	0.33378	0.00013579	0.069039	0.0045056	0.71003	1.4084	404.86	424.57	1.7058	0.93213	1.2859	135.11	20.973	1.3116e-05	0.017205
326.56	1.4345	10.645	0.093944	275.63	276.95	1.2535	0.95516	1.5945	372.57	0.33754	0.00013543	0.068956	0.0044828	0.71381	1.4009	404.93	424.63	1.7058	0.93284	1.2884	135.02	20.951	1.3128e-05	0.017234
326.75	1.4413	10.636	0.094024	275.93	277.26	1.2544	0.95549	1.5962	371.65	0.34132	0.00013508	0.068873	0.0044601	0.71759	1.3935	405.01	424.70	1.7057	0.93354	1.2909	134.93	20.930	1.3140e-05	0.017263
326.94	1.4481	10.626	0.094105	276.22	277.56	1.2553	0.95582	1.5979	370.73	0.34511	0.00013473	0.068791	0.0044376	0.72139	1.3862	405.08	424.76	1.7056	0.93424	1.2934	134.84	20.908	1.3152e-05	0.017292
327.13	1.4548	10.617	0.094185	276.51	277.86	1.2562	0.95614	1.5996	369.81	0.34892	0.00013439	0.068708	0.0044151	0.72518	1.3790	405.16	424.82	1.7055	0.93494	1.2960	134.75	20.887	1.3165e-05	0.017322
327.32	1.4616	10.608	0.094265	276.80	278.16	1.2571	0.95647	1.6013	368.89	0.35274	0.00013404	0.068626	0.0043928	0.72898	1.3718	405.23	424.88	1.7054	0.93564	1.2985	134.66	20.866	1.3177e-05	0.017351
327.51	1.4684	10.599	0.094346	277.10	278.45	1.2580	0.95679	1.6030	367.98	0.35658	0.00013370	0.068545	0.0043705	0.73279	1.3646	405.31	424.95	1.7053	0.93633	1.3011	134.56	20.845	1.3190e-05	0.017380
327.70	1.4751	10.590	0.094426	277.39	278.75	1.2589	0.95712	1.6047	367.07	0.36043	0.00013336	0.068463	0.0043483	0.73661	1.3576	405.38	425.01	1.7052	0.93703	1.3037	134.47	20.824	1.3202e-05	0.017409
327.88	1.4819	10.581	0.094507	277.68	279.05	1.2598	0.95744	1.6064	366.17	0.36430	0.00013301	0.068382	0.0043263	0.74043	1.3506	405.45	425.07	1.7051	0.93772	1.3062	134.38	20.803	1.3214e-05	0.017439
328.07	1.4886	10.572	0.094587	277.96	279.34	1.2607	0.95776	1.6081	365.26	0.36818	0.00013268	0.068301	0.0043043	0.74426	1.3436	405.52	425.13	1.7051	0.93841	1.3088	134.29	20.783	1.3227e-05	0.017468
328.26	1.4954	10.563	0.094668	278.25	279.64	1.2616	0.95808	1.6099	364.36	0.37208	0.00013234	0.068221	0.0042825	0.74809	1.3367	405.60	425.19	1.7050	0.93910	1.3114	134.20	20.763	1.3239e-05	0.017498
328.44	1.5022	10.554	0.094749	278.54	279.93	1.2624	0.95841	1.6116	363.46	0.37600	0.00013200	0.068140	0.0042607	0.75193	1.3299	405.67	425.25	1.7049	0.93979	1.3140	134.11	20.742	1.3252e-05	0.017527
328.63	1.5089	10.545	0.094829	278.83	280.23	1.2633	0.95873	1.6134	362.57	0.37993	0.00013167	0.068060	0.0042391	0.75578	1.3231	405.74	425.30	1.7048	0.94048	1.3166	134.02	20.723	1.3264e-05	0.017557
328.81	1.5157	10.536	0.094910	279.11	280.52	1.2642	0.95905	1.6151	361.67	0.38387	0.00013134	0.067980	0.0042175	0.75964	1.3164	405.81	425.36	1.7047	0.94117	1.3192	133.93	20.703	1.3276e-05	0.017586
329.00	1.5225	10.527	0.094991	279.40	280.81	1.2651	0.95937	1.6169	360.78	0.38783	0.00013100	0.067901	0.0041960	0.76350	1.3098	405.88	425.42	1.7046	0.94185	1.3219	133.84	20.683	1.3289e-05	0.017616
329.18	1.5292	10.518	0.095072	279.68	281.10	1.2659	0.95969	1.6186	359.89	0.39181	0.00013067	0.067821	0.0041746	0.76736	1.3032	405.95	425.48	1.7045	0.94254	1.3245	133.75	20.664	1.3301e-05	0.017645
329.36	1.5360	10.509	0.095152	279.96	281.40	1.2668	0.96001	1.6204	359.01	0.39581	0.00013035	0.067742	0.0041534	0.77124	1.2966	406.01	425.53	1.7044	0.94322	1.3272	133.65	20.645	1.3314e-05	0.017675
329.54	1.5428	10.501	0.095233	280.25	281.69	1.2677	0.96033	1.6222	358.13	0.39982	0.00013002	0.067663	0.0041322	0.77512	1.2901	406.08	425.59	1.7043	0.94390	1.3298	133.56	20.626	1.3326e-05	0.017705
329.72	1.5495	10.492	0.095314	280.53	281.98	1.2685	0.96065	1.6240	357.24	0.40385	0.00012969	0.067585	0.0041111	0.77901	1.2837	406.15	425.65	1.7042	0.94458	1.3325	133.47	20.607	1.3339e-05	0.017735
329.90	1.5563	10.483	0.095395	280.81	282.26	1.2694	0.96097	1.6258	356.37	0.40789	0.00012937	0.067506	0.0040901	0.78290	1.2773	406.22	425.70	1.7042	0.94526	1.3352	133.38	20.588	1.3352e-05	0.017764
330.08	1.5631	10.474	0.095476	281.09	282.55	1.2702	0.96129	1.6275	355.49	0.41195	0.00012905	0.067428	0.0040691	0.78680	1.2710	406.28	425.75	1.7041	0.94594	1.3379	133.29	20.569	1.3364e-05	0.017794
330.26	1.5698	10.465	0.095558	281.37	282.84	1.2711	0.96161	1.6293	354.62	0.41603	0.00012873	0.067350	0.0040483	0.79071	1.2647	406.35	425.81	1.7040	0.94662	1.3406	133.20	20.551	1.3377e-05	0.017824
330.44	1.5766	10.456	0.095639	281.65	283.13	1.2719	0.96193	1.6312	353.75	0.42012	0.00012841	0.067272	0.0040276	0.79462	1.2585	406.42	425.86	1.7039	0.94729	1.3433	133.10	20.533	1.3389e-05	0.017854
330.62	1.5834	10.447	0.095720	281.93	283.41	1.2728	0.96224	1.6330	352.88	0.42423	0.00012809	0.067195	0.0040069	0.79854	1.2523	406.48	425.92	1.7038	0.94797	1.3460	133.01	20.515	1.3402e-05	0.017884
330.80	1.5901	10.438	0.095801	282.21	283.70	1.2736	0.96256	1.6348	352.01	0.42836	0.00012777	0.067117	0.0039864	0.80247	1.2462	406.55	425.97	1.7037	0.94864	1.3487	132.92	20.497	1.3414e-05	0.017914
330.97	1.5969	10.429	0.095883	282.48	283.98	1.2745	0.96288	1.6366	351.15	0.43251	0.00012746	0.067040	0.0039659	0.80641	1.2401	406.61	426.02	1.7036	0.94931	1.3515	132.83	20.479	1.3427e-05	0.017944
331.15	1.6037	10.421	0.095964	282.76	284.27	1.2753	0.96319	1.6385	350.29	0.43667	0.00012714	0.066963	0.0039455	0.81035	1.2340	406.68	426.07	1.7035	0.94998	1.3542	132.73	20.461	1.3440e-05	0.017974
331.33	1.6104	10.412	0.096046	283.04	284.55	1.2761	0.96351	1.6403	349.43	0.44085	0.00012683	0.066887	0.0039252	0.81430	1.2281	406.74	426.12	1.7034	0.95065	1.3570	132.64	20.444	1.3452e-05	0.018004
331.50	1.6172	10.403	0.096127	283.31	284.83	1.2770	0.96383	1.6421	348.57	0.44505	0.00012652	0.066810	0.0039050	0.81825	1.2221	406.80	426.17	1.7033	0.95132	1.3597	132.55	20.426	1.3465e-05	0.018035
331.68	1.6239	10.394	0.096209	283.59	285.12	1.2778	0.96414	1.6440	347.71	0.44927	0.00012621	0.066734	0.0038848	0.82222	1.2162	406.86	426.22	1.7032	0.95199	1.3625	132.46	20.409	1.3478e-05	0.018065
331.85	1.6307	10.385	0.096290	283.86	285.40	1.2786	0.96446	1.6459	346.86	0.45350	0.00012590	0.066658	0.0038648	0.82619	1.2104	406.93	426.27	1.7031	0.95266	1.3653	132.36	20.392	1.3491e-05	0.018095
332.03	1.6375	10.376	0.096372	284.13	285.68	1.2795	0.96477	1.6477	346.01	0.45776	0.00012560	0.066583	0.0038448	0.83016	1.2046	406.99	426.32	1.7030	0.95332	1.3681	132.27	20.375	1.3503e-05	0.018126
332.20	1.6442	10.368	0.096454	284.41	285.96	1.2803	0.96509	1.6496	345.16	0.46203	0.00012529	0.066507	0.0038250	0.83415	1.1988	407.05	426.37	1.7029	0.95399	1.3709	132.18	20.358	1.3516e-05	0.018156
332.37	1.6510	10.359	0.096536	284.68	286.24	1.2811	0.96540	1.6515	344.32	0.46632	0.00012499	0.066432	0.0038052	0.83814	1.1931	407.11	426.42	1.7029	0.95465	1.3738	132.08	20.342	1.3529e-05	0.018186
332.54	1.6578	10.350	0.096618	284.95	286.52	1.2819	0.96572	1.6534	343.47	0.47063	0.00012468	0.066356	0.0037855	0.84214	1.1875	407.17	426.46	1.7028	0.95532	1.3766	131.99	20.325	1.3542e-05	0.018217
332.71	1.6645	10.341	0.096700	285.22	286.80	1.2827	0.96603	1.6553	342.63	0.47496	0.00012438	0.066282	0.0037658	0.84614	1.1818	407.23	426.51	1.7027	0.95598	1.3795	131.90	20.309	1.3555e-05	0.018248
332.89	1.6713	10.333	0.096782	285.49	287.08	1.2836	0.96635	1.6572	341.79	0.47930	0.00012408	0.066207	0.0037463	0.85016	1.1763	407.29	426.56	1.7026	0.95664	1.3823	131.80	20.292	1.3567e-05	0.018278
333.06	1.6781	10.324	0.096864	285.76	287.35	1.2844	0.96666	1.6591	340.95	0.48367	0.00012378	0.066132	0.0037268	0.85418	1.1707	407.35	426.60	1.7025	0.95730	1.3852	131.71	20.276	1.3580e-05	0.018309
333.23	1.6848	10.315	0.096946	286.03	287.63	1.2852	0.96697	1.6610	340.12	0.48805	0.00012348	0.066058	0.0037074	0.85821	1.1652	407.41	426.65	1.7024	0.95796	1.3881	131.62	20.260	1.3593e-05	0.018340
333.40	1.6916	10.306	0.097029	286.30	287.91	1.2860	0.96729	1.6630	339.28	0.49246	0.00012318	0.065984	0.0036881	0.86224	1.1598	407.47	426.70	1.7023	0.95862	1.3910	131.52	20.244	1.3606e-05	0.018371
333.56	1.6984	10.298	0.097111	286.56	288.18	1.2868	0.96760	1.6649	338.45	0.49688	0.00012289	0.065910	0.0036689	0.86629	1.1544	407.53	426.74	1.7022	0.95927	1.3939	131.43	20.229	1.3619e-05	0.018401
333.73	1.7051	10.289	0.097193	286.83	288.46	1.2876	0.96791	1.6668	337.62	0.50132	0.00012259	0.065836	0.0036497	0.87034	1.1490	407.58	426.78	1.7021	0.95993	1.3968	131.34	20.213	1.3632e-05	0.018432
333.90	1.7119	10.280	0.097276	287.10	288.73	1.2884	0.96823	1.6688	336.79	0.50578	0.00012230	0.065763	0.0036306	0.87439	1.1436	407.64	426.83	1.7020	0.96058	1.3998	131.24	20.198	1.3645e-05	0.018463
334.07	1.7187	10.271	0.097359	287.36	289.00	1.2892	0.96854	1.6708	335.97	0.51027	0.00012201	0.065689	0.0036116	0.87846	1.1384	407.70	426.87	1.7019	0.96124	1.4027	131.15	20.182	1.3658e-05	0.018495
334.24	1.7254	10.263	0.097441	287.63	289.28	1.2900	0.96885	1.6727	335.15	0.51477	0.00012172	0.065616	0.0035927	0.88253	1.1331	407.75	426.91	1.7018	0.96189	1.4057	131.05	20.167	1.3671e-05	0.018526
334.40	1.7322	10.254	0.097524	287.90	289.55	1.2908	0.96916	1.6747	334.32	0.51929	0.00012142	0.065543	0.0035739	0.88661	1.1279	407.81	426.96	1.7017	0.96254	1.4087	130.96	20.152	1.3684e-05	0.018557
334.57	1.7389	10.245	0.097607	288.16	289.82	1.2916	0.96948	1.6767	333.50	0.52384	0.00012114	0.065470	0.0035551	0.89070	1.1227	407.86	427.00	1.7016	0.96320	1.4117	130.86	20.137	1.3697e-05	0.018588
334.73	1.7457	10.236	0.097690	288.42	290.09	1.2924	0.96979	1.6787	332.69	0.52840	0.00012085	0.065398	0.0035364	0.89480	1.1176	407.92	427.04	1.7015	0.96385	1.4147	130.77	20.122	1.3710e-05	0.018620
334.90	1.7525	10.228	0.097773	288.69	290.37	1.2932	0.97010	1.6807	331.87	0.53299	0.00012056	0.065326	0.0035178	0.89890	1.1125	407.97	427.08	1.7014	0.96450	1.4177	130.68	20.107	1.3724e-05	0.018651
335.06	1.7592	10.219	0.097856	288.95	290.64	1.2940	0.97041	1.6827	331.06	0.53759	0.00012028	0.065253	0.0034992	0.90302	1.1074	408.03	427.12	1.7013	0.96515	1.4207	130.58	20.093	1.3737e-05	0.018682
335.23	1.7660	10.210	0.097939	289.21	290.91	1.2948	0.97072	1.6847	330.24	0.54222	0.00011999	0.065181	0.0034808	0.90714	1.1024	408.08	427.16	1.7012	0.96580	1.4238	130.49	20.078	1.3750e-05	0.018714
335.39	1.7728	10.202	0.098023	289.47	291.18	1.2955	0.97103	1.6868	329.43	0.54687	0.00011971	0.065109	0.0034624	0.91126	1.0974	408.13	427.20	1.7011	0.96644	1.4268	130.39	20.064	1.3763e-05	0.018746
335.55	1.7795	10.193	0.098106	289.73	291.45	1.2963	0.97135	1.6888	328.62	0.55154	0.00011942	0.065038	0.0034441	0.91540	1.0924	408.19	427.24	1.7010	0.96709	1.4299	130.30	20.049	1.3776e-05	0.018777
335.72	1.7863	10.184	0.098190	289.99	291.71	1.2971	0.97166	1.6908	327.82	0.55623	0.00011914	0.064966	0.0034258	0.91954	1.0875	408.24	427.28	1.7009	0.96774	1.4330	130.20	20.035	1.3790e-05	0.018809
335.88	1.7931	10.176	0.098273	290.25	291.98	1.2979	0.97197	1.6929	327.01	0.56094	0.00011886	0.064895	0.0034076	0.92370	1.0826	408.29	427.32	1.7008	0.96838	1.4361	130.11	20.021	1.3803e-05	0.018841
336.04	1.7998	10.167	0.098357	290.51	292.25	1.2987	0.97228	1.6950	326.21	0.56567	0.00011858	0.064824	0.0033895	0.92786	1.0778	408.34	427.36	1.7007	0.96903	1.4392	130.01	20.007	1.3816e-05	0.018873
336.20	1.8066	10.158	0.098441	290.77	292.52	1.2994	0.97259	1.6970	325.41	0.57043	0.00011830	0.064753	0.0033715	0.93202	1.0729	408.40	427.39	1.7006	0.96967	1.4424	129.92	19.993	1.3829e-05	0.018905
336.36	1.8134	10.150	0.098525	291.03	292.78	1.3002	0.97290	1.6991	324.61	0.57521	0.00011803	0.064682	0.0033535	0.93620	1.0681	408.45	427.43	1.7005	0.97031	1.4455	129.82	19.980	1.3843e-05	0.018937
336.52	1.8201	10.141	0.098609	291.29	293.05	1.3010	0.97321	1.7012	323.81	0.58001	0.00011775	0.064612	0.0033356	0.94038	1.0634	408.50	427.47	1.7004	0.97096	1.4487	129.73	19.966	1.3856e-05	0.018969
336.68	1.8269	10.132	0.098693	291.55	293.31	1.3018	0.97352	1.7033	323.01	0.58484	0.00011748	0.064541	0.0033178	0.94458	1.0587	408.55	427.50	1.7003	0.97160	1.4518	129.63	19.953	1.3870e-05	0.019001
336.84	1.8337	10.124	0.098777	291.80	293.58	1.3025	0.97383	1.7054	322.22	0.58968	0.00011720	0.064471	0.0033000	0.94878	1.0540	408.60	427.54	1.7002	0.97224	1.4550	129.53	19.939	1.3883e-05	0.019034
337.00	1.8404	10.115	0.098862	292.06	293.84	1.3033	0.97414	1.7076	321.43	0.59455	0.00011693	0.064401	0.0032824	0.95299	1.0493	408.65	427.57	1.7001	0.97288	1.4582	129.44	19.926	1.3897e-05	0.019066
337.16	1.8472	10.107	0.098946	292.32	294.11	1.3040	0.97445	1.7097	320.64	0.59945	0.00011666	0.064331	0.0032647	0.95721	1.0447	408.69	427.61	1.7000	0.97352	1.4615	129.34	19.913	1.3910e-05	0.019099
337.32	1.8539	10.098	0.099031	292.57	294.37	1.3048	0.97477	1.7118	319.85	0.60436	0.00011638	0.064261	0.0032472	0.96143	1.0401	408.74	427.64	1.6999	0.97416	1.4647	129.25	19.900	1.3924e-05	0.019131
337.48	1.8607	10.089	0.099115	292.83	294.63	1.3056	0.97508	1.7140	319.06	0.60930	0.00011611	0.064192	0.0032297	0.96567	1.0356	408.79	427.68	1.6998	0.97480	1.4680	129.15	19.887	1.3937e-05	0.019164
337.63	1.8675	10.081	0.099200	293.08	294.90	1.3063	0.97539	1.7161	318.27	0.61427	0.00011584	0.064122	0.0032123	0.96991	1.0310	408.84	427.71	1.6997	0.97543	1.4712	129.06	19.874	1.3951e-05	0.019196
337.79	1.8742	10.072	0.099285	293.34	295.16	1.3071	0.97570	1.7183	317.49	0.61925	0.00011558	0.064053	0.0031949	0.97416	1.0265	408.89	427.74	1.6996	0.97607	1.4745	128.96	19.861	1.3964e-05	0.019229
337.95	1.8810	10.063	0.099370	293.59	295.42	1.3078	0.97601	1.7205	316.70	0.62427	0.00011531	0.063984	0.0031777	0.97842	1.0221	408.93	427.78	1.6995	0.97671	1.4778	128.86	19.848	1.3978e-05	0.019262
338.10	1.8878	10.055	0.099455	293.84	295.68	1.3086	0.97632	1.7227	315.92	0.62930	0.00011504	0.063915	0.0031605	0.98269	1.0176	408.98	427.81	1.6994	0.97734	1.4812	128.77	19.836	1.3992e-05	0.019295
338.26	1.8945	10.046	0.099541	294.10	295.94	1.3093	0.97663	1.7249	315.14	0.63436	0.00011478	0.063846	0.0031433	0.98697	1.0132	409.03	427.84	1.6993	0.97798	1.4845	128.67	19.823	1.4005e-05	0.019328
338.41	1.9013	10.038	0.099626	294.35	296.20	1.3101	0.97694	1.7271	314.36	0.63945	0.00011451	0.063778	0.0031262	0.99126	1.0088	409.07	427.87	1.6992	0.97861	1.4879	128.58	19.811	1.4019e-05	0.019361
338.57	1.9081	10.029	0.099711	294.60	296.46	1.3108	0.97725	1.7293	313.59	0.64456	0.00011425	0.063709	0.0031092	0.99555	1.0045	409.12	427.90	1.6991	0.97925	1.4912	128.48	19.798	1.4033e-05	0.019395
338.72	1.9148	10.020	0.099797	294.85	296.72	1.3116	0.97756	1.7316	312.81	0.64969	0.00011398	0.063641	0.0030923	0.99985	1.0001	409.16	427.93	1.6990	0.97988	1.4946	128.38	19.786	1.4047e-05	0.019428
338.88	1.9216	10.012	0.099883	295.10	296.98	1.3123	0.97787	1.7338	312.04	0.65485	0.00011372	0.063573	0.0030754	1.0042	0.99585	409.21	427.96	1.6989	0.98052	1.4980	128.29	19.774	1.4061e-05	0.019461
339.03	1.9284	10.003	0.099969	295.35	297.24	1.3131	0.97818	1.7361	311.27	0.66004	0.00011346	0.063505	0.0030585	1.0085	0.99158	409.25	427.99	1.6987	0.98115	1.5015	128.19	19.762	1.4074e-05	0.019495
339.18	1.9351	9.9945	0.10005	295.60	297.50	1.3138	0.97849	1.7383	310.49	0.66525	0.00011320	0.063437	0.0030418	1.0128	0.98734	409.30	428.02	1.6986	0.98178	1.5049	128.09	19.750	1.4088e-05	0.019529
339.34	1.9419	9.9860	0.10014	295.85	297.76	1.3146	0.97880	1.7406	309.72	0.67049	0.00011294	0.063370	0.0030251	1.0172	0.98313	409.34	428.05	1.6985	0.98241	1.5084	128.00	19.738	1.4102e-05	0.019562
339.49	1.9487	9.9774	0.10023	296.10	298.01	1.3153	0.97912	1.7429	308.96	0.67576	0.00011268	0.063302	0.0030085	1.0215	0.97894	409.38	428.08	1.6984	0.98304	1.5119	127.90	19.726	1.4116e-05	0.019596
339.64	1.9554	9.9688	0.10031	296.35	298.27	1.3160	0.97943	1.7452	308.19	0.68105	0.00011242	0.063235	0.0029919	1.0259	0.97478	409.42	428.11	1.6983	0.98367	1.5154	127.80	19.715	1.4130e-05	0.019630
339.79	1.9622	9.9602	0.10040	296.60	298.53	1.3168	0.97974	1.7475	307.43	0.68637	0.00011217	0.063168	0.0029754	1.0302	0.97065	409.47	428.13	1.6982	0.98430	1.5189	127.70	19.703	1.4144e-05	0.019664
339.94	1.9690	9.9516	0.10049	296.84	298.78	1.3175	0.98005	1.7499	306.66	0.69171	0.00011191	0.063101	0.0029589	1.0346	0.96655	409.51	428.16	1.6981	0.98493	1.5224	127.61	19.692	1.4158e-05	0.019698
340.09	1.9757	9.9430	0.10057	297.09	299.04	1.3182	0.98036	1.7522	305.90	0.69708	0.00011166	0.063034	0.0029426	1.0390	0.96247	409.55	428.19	1.6980	0.98556	1.5260	127.51	19.680	1.4173e-05	0.019732
340.24	1.9825	9.9344	0.10066	297.34	299.29	1.3190	0.98067	1.7545	305.14	0.70248	0.00011140	0.062967	0.0029262	1.0434	0.95841	409.59	428.21	1.6979	0.98619	1.5296	127.41	19.669	1.4187e-05	0.019767
340.39	1.9892	9.9258	0.10075	297.58	299.55	1.3197	0.98098	1.7569	304.38	0.70791	0.00011115	0.062901	0.0029100	1.0478	0.95438	409.63	428.24	1.6978	0.98682	1.5332	127.32	19.658	1.4201e-05	0.019801
340.54	1.9960	9.9173	0.10083	297.83	299.80	1.3204	0.98130	1.7593	303.62	0.71336	0.00011089	0.062834	0.0028938	1.0522	0.95038	409.67	428.27	1.6977	0.98745	1.5368	127.22	19.646	1.4215e-05	0.019836
340.69	2.0028	9.9087	0.10092	298.08	300.06	1.3212	0.98161	1.7617	302.86	0.71884	0.00011064	0.062768	0.0028776	1.0566	0.94640	409.71	428.29	1.6975	0.98807	1.5404	127.12	19.635	1.4229e-05	0.019870
340.84	2.0095	9.9001	0.10101	298.32	300.31	1.3219	0.98192	1.7641	302.11	0.72435	0.00011039	0.062702	0.0028615	1.0611	0.94245	409.75	428.31	1.6974	0.98870	1.5441	127.02	19.624	1.4244e-05	0.019905
340.99	2.0163	9.8915	0.10110	298.57	300.56	1.3226	0.98223	1.7665	301.35	0.72989	0.00011014	0.062636	0.0028455	1.0655	0.93852	409.79	428.34	1.6973	0.98933	1.5478	126.92	19.613	1.4258e-05	0.019940
341.14	2.0231	9.8829	0.10118	298.81	300.82	1.3233	0.98255	1.7689	300.60	0.73546	0.00010989	0.062570	0.0028296	1.0700	0.93461	409.83	428.36	1.6972	0.98995	1.5515	126.83	19.602	1.4272e-05	0.019975
341.28	2.0298	9.8744	0.10127	299.05	301.07	1.3240	0.98286	1.7713	299.85	0.74106	0.00010964	0.062504	0.0028137	1.0744	0.93073	409.87	428.39	1.6971	0.99058	1.5552	126.73	19.592	1.4287e-05	0.020010
341.43	2.0366	9.8658	0.10136	299.30	301.32	1.3248	0.98317	1.7738	299.10	0.74669	0.00010939	0.062439	0.0027978	1.0789	0.92687	409.91	428.41	1.6970	0.99121	1.5589	126.63	19.581	1.4301e-05	0.020045
341.58	2.0434	9.8572	0.10145	299.54	301.57	1.3255	0.98349	1.7763	298.35	0.75234	0.00010915	0.062373	0.0027820	1.0834	0.92304	409.95	428.43	1.6969	0.99183	1.5627	126.53	19.570	1.4316e-05	0.020080
341.73	2.0501	9.8486	0.10154	299.78	301.82	1.3262	0.98380	1.7787	297.60	0.75803	0.00010890	0.062308	0.0027663	1.0879	0.91923	409.98	428.45	1.6968	0.99245	1.5665	126.43	19.560	1.4330e-05	0.020116
341.87	2.0569	9.8401	0.10163	300.03	302.08	1.3269	0.98411	1.7812	296.85	0.76374	0.00010865	0.062243	0.0027506	1.0924	0.91544	410.02	428.48	1.6966	0.99308	1.5703	126.34	19.549	1.4345e-05	0.020151
342.02	2.0637	9.8315	0.10171	300.27	302.33	1.3276	0.98443	1.7837	296.11	0.76949	0.00010841	0.062178	0.0027350	1.0969	0.91167	410.06	428.50	1.6965	0.99370	1.5741	126.24	19.539	1.4359e-05	0.020187
342.16	2.0704	9.8229	0.10180	300.51	302.58	1.3283	0.98474	1.7863	295.36	0.77526	0.00010816	0.062113	0.0027195	1.1014	0.90793	410.09	428.52	1.6964	0.99433	1.5780	126.14	19.529	1.4374e-05	0.020222
342.31	2.0772	9.8143	0.10189	300.75	302.83	1.3290	0.98506	1.7888	294.62	0.78107	0.00010792	0.062048	0.0027040	1.1059	0.90421	410.13	428.54	1.6963	0.99495	1.5819	126.04	19.518	1.4389e-05	0.020258
342.45	2.0840	9.8058	0.10198	300.99	303.08	1.3298	0.98537	1.7913	293.88	0.78691	0.00010768	0.061984	0.0026885	1.1105	0.90051	410.17	428.56	1.6962	0.99557	1.5858	125.94	19.508	1.4403e-05	0.020294
342.60	2.0907	9.7972	0.10207	301.23	303.32	1.3305	0.98569	1.7939	293.14	0.79278	0.00010743	0.061919	0.0026732	1.1150	0.89683	410.20	428.58	1.6961	0.99620	1.5897	125.84	19.498	1.4418e-05	0.020330
342.74	2.0975	9.7886	0.10216	301.47	303.57	1.3312	0.98600	1.7965	292.40	0.79868	0.00010719	0.061855	0.0026578	1.1196	0.89318	410.24	428.60	1.6959	0.99682	1.5936	125.75	19.488	1.4433e-05	0.020367
342.88	2.1042	9.7800	0.10225	301.71	303.82	1.3319	0.98632	1.7991	291.66	0.80461	0.00010695	0.061791	0.0026426	1.1242	0.88955	410.27	428.62	1.6958	0.99744	1.5976	125.65	19.478	1.4448e-05	0.020403
343.03	2.1110	9.7714	0.10234	301.95	304.07	1.3326	0.98663	1.8017	290.92	0.81058	0.00010671	0.061727	0.0026273	1.1288	0.88593	410.30	428.63	1.6957	0.99806	1.6016	125.55	19.468	1.4463e-05	0.020439
343.17	2.1178	9.7629	0.10243	302.19	304.32	1.3333	0.98695	1.8043	290.19	0.81658	0.00010647	0.061663	0.0026122	1.1333	0.88234	410.34	428.65	1.6956	0.99868	1.6056	125.45	19.458	1.4477e-05	0.020476
343.31	2.1245	9.7543	0.10252	302.43	304.56	1.3340	0.98727	1.8069	289.45	0.82261	0.00010623	0.061599	0.0025971	1.1379	0.87877	410.37	428.67	1.6955	0.99930	1.6097	125.35	19.449	1.4492e-05	0.020513
343.45	2.1313	9.7457	0.10261	302.67	304.81	1.3347	0.98758	1.8096	288.72	0.82867	0.00010599	0.061535	0.0025820	1.1426	0.87522	410.40	428.69	1.6954	0.99993	1.6137	125.25	19.439	1.4507e-05	0.020549
343.60	2.1381	9.7371	0.10270	302.91	305.06	1.3354	0.98790	1.8122	287.99	0.83477	0.00010576	0.061472	0.0025670	1.1472	0.87169	410.44	428.70	1.6952	1.0005	1.6178	125.15	19.429	1.4522e-05	0.020586
343.74	2.1448	9.7285	0.10279	303.14	305.30	1.3361	0.98822	1.8149	287.25	0.84090	0.00010552	0.061408	0.0025521	1.1518	0.86819	410.47	428.72	1.6951	1.0012	1.6220	125.05	19.420	1.4538e-05	0.020623
343.88	2.1516	9.7200	0.10288	303.38	305.55	1.3368	0.98854	1.8176	286.52	0.84706	0.00010528	0.061345	0.0025372	1.1565	0.86470	410.50	428.74	1.6950	1.0018	1.6261	124.95	19.410	1.4553e-05	0.020661
344.02	2.1584	9.7114	0.10297	303.62	305.80	1.3375	0.98886	1.8203	285.79	0.85326	0.00010505	0.061282	0.0025224	1.1611	0.86123	410.53	428.75	1.6949	1.0024	1.6303	124.85	19.401	1.4568e-05	0.020698
344.16	2.1651	9.7028	0.10306	303.85	306.04	1.3382	0.98918	1.8231	285.07	0.85950	0.00010481	0.061219	0.0025076	1.1658	0.85778	410.56	428.77	1.6947	1.0030	1.6345	124.75	19.392	1.4583e-05	0.020735
344.30	2.1719	9.6942	0.10315	304.09	306.29	1.3388	0.98949	1.8258	284.34	0.86577	0.00010458	0.061156	0.0024928	1.1705	0.85435	410.60	428.78	1.6946	1.0036	1.6387	124.66	19.382	1.4598e-05	0.020773
344.44	2.1787	9.6856	0.10325	304.33	306.53	1.3395	0.98981	1.8286	283.61	0.87207	0.00010435	0.061093	0.0024782	1.1752	0.85094	410.63	428.80	1.6945	1.0043	1.6430	124.56	19.373	1.4614e-05	0.020811
344.58	2.1854	9.6770	0.10334	304.56	306.78	1.3402	0.99013	1.8313	282.89	0.87841	0.00010411	0.061031	0.0024636	1.1799	0.84755	410.66	428.81	1.6944	1.0049	1.6472	124.46	19.364	1.4629e-05	0.020849
344.72	2.1922	9.6684	0.10343	304.80	307.02	1.3409	0.99046	1.8341	282.16	0.88478	0.00010388	0.060968	0.0024490	1.1846	0.84418	410.69	428.82	1.6943	1.0055	1.6516	124.36	19.355	1.4645e-05	0.020887
344.86	2.1990	9.6598	0.10352	305.03	307.26	1.3416	0.99078	1.8369	281.44	0.89119	0.00010365	0.060906	0.0024345	1.1893	0.84082	410.72	428.84	1.6941	1.0061	1.6559	124.26	19.346	1.4660e-05	0.020925
345.00	2.2057	9.6512	0.10361	305.27	307.51	1.3423	0.99110	1.8398	280.72	0.89764	0.00010342	0.060844	0.0024200	1.1940	0.83749	410.74	428.85	1.6940	1.0067	1.6603	124.16	19.337	1.4675e-05	0.020963
345.13	2.2125	9.6426	0.10371	305.50	307.75	1.3430	0.99142	1.8426	279.99	0.90413	0.00010319	0.060782	0.0024056	1.1988	0.83417	410.77	428.86	1.6939	1.0074	1.6646	124.06	19.328	1.4691e-05	0.021002
345.27	2.2192	9.6340	0.10380	305.74	307.99	1.3437	0.99174	1.8455	279.27	0.91065	0.00010296	0.060720	0.0023912	1.2036	0.83087	410.80	428.87	1.6938	1.0080	1.6691	123.96	19.319	1.4707e-05	0.021040
345.41	2.2260	9.6254	0.10389	305.97	308.24	1.3443	0.99207	1.8484	278.55	0.91721	0.00010273	0.060658	0.0023769	1.2083	0.82759	410.83	428.88	1.6936	1.0086	1.6735	123.86	19.310	1.4722e-05	0.021079
345.55	2.2328	9.6168	0.10398	306.20	308.48	1.3450	0.99239	1.8513	277.83	0.92381	0.00010250	0.060596	0.0023627	1.2131	0.82433	410.86	428.90	1.6935	1.0092	1.6780	123.76	19.301	1.4738e-05	0.021118
345.68	2.2395	9.6082	0.10408	306.44	308.72	1.3457	0.99271	1.8542	277.12	0.93044	0.00010227	0.060534	0.0023484	1.2179	0.82109	410.88	428.91	1.6934	1.0098	1.6825	123.66	19.293	1.4754e-05	0.021157
345.82	2.2463	9.5996	0.10417	306.67	308.96	1.3464	0.99304	1.8571	276.40	0.93712	0.00010204	0.060473	0.0023343	1.2227	0.81786	410.91	428.92	1.6933	1.0105	1.6871	123.56	19.284	1.4770e-05	0.021196
345.96	2.2531	9.5909	0.10427	306.90	309.20	1.3471	0.99336	1.8601	275.68	0.94383	0.00010182	0.060411	0.0023202	1.2275	0.81465	410.94	428.93	1.6931	1.0111	1.6916	123.45	19.275	1.4785e-05	0.021235
346.09	2.2598	9.5823	0.10436	307.13	309.44	1.3477	0.99369	1.8630	274.97	0.95058	0.00010159	0.060350	0.0023061	1.2324	0.81146	410.96	428.94	1.6930	1.0117	1.6962	123.35	19.267	1.4801e-05	0.021275
346.23	2.2666	9.5737	0.10445	307.37	309.69	1.3484	0.99401	1.8660	274.25	0.95737	0.00010136	0.060289	0.0022921	1.2372	0.80828	410.99	428.95	1.6929	1.0123	1.7009	123.25	19.258	1.4817e-05	0.021314
346.36	2.2734	9.5651	0.10455	307.60	309.93	1.3491	0.99434	1.8691	273.54	0.96421	0.00010114	0.060228	0.0022782	1.2420	0.80512	411.02	428.95	1.6927	1.0129	1.7055	123.15	19.250	1.4833e-05	0.021354
346.50	2.2801	9.5564	0.10464	307.83	310.17	1.3498	0.99467	1.8721	272.83	0.97108	0.00010091	0.060167	0.0022642	1.2469	0.80198	411.04	428.96	1.6926	1.0135	1.7102	123.05	19.241	1.4849e-05	0.021394
346.63	2.2869	9.5478	0.10474	308.06	310.41	1.3504	0.99500	1.8751	272.12	0.97799	0.00010069	0.060106	0.0022504	1.2518	0.79886	411.06	428.97	1.6925	1.0142	1.7150	122.95	19.233	1.4865e-05	0.021434
346.77	2.2937	9.5391	0.10483	308.29	310.65	1.3511	0.99533	1.8782	271.41	0.98495	0.00010047	0.060046	0.0022366	1.2567	0.79575	411.09	428.98	1.6923	1.0148	1.7197	122.85	19.225	1.4882e-05	0.021474
346.90	2.3004	9.5305	0.10493	308.52	310.89	1.3518	0.99565	1.8813	270.70	0.99194	0.00010024	0.059985	0.0022228	1.2616	0.79266	411.11	428.98	1.6922	1.0154	1.7245	122.75	19.216	1.4898e-05	0.021515
347.04	2.3072	9.5218	0.10502	308.75	311.12	1.3524	0.99598	1.8844	269.99	0.99898	0.00010002	0.059925	0.0022091	1.2665	0.78958	411.14	428.99	1.6921	1.0160	1.7294	122.65	19.208	1.4914e-05	0.021555
347.17	2.3140	9.5132	0.10512	308.98	311.36	1.3531	0.99632	1.8876	269.28	1.0061	9.9799e-05	0.059864	0.0021954	1.2714	0.78652	411.16	429.00	1.6919	1.0166	1.7342	122.55	19.200	1.4930e-05	0.021596
347.30	2.3207	9.5045	0.10521	309.21	311.60	1.3538	0.99665	1.8907	268.57	1.0132	9.9577e-05	0.059804	0.0021818	1.2764	0.78348	411.18	429.00	1.6918	1.0173	1.7391	122.45	19.192	1.4947e-05	0.021637
347.44	2.3275	9.4959	0.10531	309.44	311.84	1.3544	0.99698	1.8939	267.86	1.0204	9.9357e-05	0.059744	0.0021683	1.2813	0.78045	411.21	429.01	1.6917	1.0179	1.7441	122.35	19.184	1.4963e-05	0.021678
347.57	2.3343	9.4872	0.10541	309.67	312.08	1.3551	0.99731	1.8971	267.16	1.0276	9.9136e-05	0.059684	0.0021547	1.2863	0.77744	411.23	429.01	1.6915	1.0185	1.7490	122.24	19.176	1.4980e-05	0.021719
347.70	2.3410	9.4785	0.10550	309.90	312.32	1.3558	0.99764	1.9003	266.45	1.0348	9.8916e-05	0.059624	0.0021413	1.2913	0.77444	411.25	429.02	1.6914	1.0191	1.7540	122.14	19.168	1.4996e-05	0.021761
347.83	2.3478	9.4699	0.10560	310.12	312.55	1.3564	0.99798	1.9035	265.75	1.0421	9.8697e-05	0.059565	0.0021278	1.2962	0.77146	411.27	429.02	1.6913	1.0197	1.7591	122.04	19.160	1.5013e-05	0.021802
347.96	2.3545	9.4612	0.10570	310.35	312.79	1.3571	0.99831	1.9068	265.05	1.0495	9.8478e-05	0.059505	0.0021145	1.3013	0.76849	411.29	429.03	1.6911	1.0203	1.7642	121.94	19.152	1.5029e-05	0.021844
348.10	2.3613	9.4525	0.10579	310.58	313.03	1.3578	0.99865	1.9101	264.34	1.0568	9.8260e-05	0.059445	0.0021011	1.3063	0.76554	411.31	429.03	1.6910	1.0210	1.7693	121.84	19.144	1.5046e-05	0.021886
348.23	2.3681	9.4438	0.10589	310.81	313.27	1.3584	0.99898	1.9134	263.64	1.0643	9.8042e-05	0.059386	0.0020878	1.3113	0.76260	411.33	429.03	1.6909	1.0216	1.7744	121.74	19.136	1.5063e-05	0.021928
348.36	2.3748	9.4351	0.10599	311.04	313.50	1.3591	0.99932	1.9167	262.94	1.0718	9.7824e-05	0.059327	0.0020746	1.3163	0.75968	411.35	429.03	1.6907	1.0222	1.7796	121.63	19.129	1.5080e-05	0.021970
348.49	2.3816	9.4264	0.10609	311.26	313.74	1.3597	0.99966	1.9201	262.24	1.0793	9.7607e-05	0.059268	0.0020614	1.3214	0.75677	411.37	429.04	1.6906	1.0228	1.7849	121.53	19.121	1.5097e-05	0.022013
348.62	2.3884	9.4177	0.10618	311.49	313.98	1.3604	1.0000	1.9235	261.54	1.0869	9.7391e-05	0.059209	0.0020483	1.3265	0.75388	411.39	429.04	1.6905	1.0234	1.7901	121.43	19.113	1.5114e-05	0.022055
348.75	2.3951	9.4090	0.10628	311.72	314.21	1.3611	1.0003	1.9269	260.84	1.0945	9.7175e-05	0.059150	0.0020352	1.3316	0.75100	411.41	429.04	1.6903	1.0241	1.7954	121.33	19.106	1.5131e-05	0.022098
348.88	2.4019	9.4003	0.10638	311.94	314.45	1.3617	1.0007	1.9303	260.14	1.1022	9.6960e-05	0.059091	0.0020221	1.3367	0.74814	411.43	429.04	1.6902	1.0247	1.8008	121.23	19.098	1.5148e-05	0.022141
349.01	2.4087	9.3915	0.10648	312.17	314.68	1.3624	1.0010	1.9338	259.44	1.1099	9.6745e-05	0.059032	0.0020091	1.3418	0.74529	411.45	429.04	1.6900	1.0253	1.8062	121.12	19.091	1.5165e-05	0.022184
349.14	2.4154	9.3828	0.10658	312.40	314.92	1.3630	1.0014	1.9372	258.74	1.1177	9.6530e-05	0.058974	0.0019962	1.3469	0.74245	411.46	429.04	1.6899	1.0259	1.8116	121.02	19.083	1.5182e-05	0.022228
349.27	2.4222	9.3741	0.10668	312.62	315.15	1.3637	1.0017	1.9407	258.05	1.1255	9.6316e-05	0.058915	0.0019832	1.3520	0.73963	411.48	429.04	1.6897	1.0265	1.8171	120.92	19.076	1.5199e-05	0.022271
349.39	2.4290	9.3653	0.10678	312.85	315.39	1.3643	1.0020	1.9443	257.35	1.1333	9.6102e-05	0.058857	0.0019704	1.3572	0.73682	411.50	429.04	1.6896	1.0272	1.8226	120.82	19.068	1.5217e-05	0.022315
349.52	2.4357	9.3566	0.10688	313.07	315.62	1.3650	1.0024	1.9478	256.66	1.1413	9.5889e-05	0.058798	0.0019575	1.3623	0.73403	411.52	429.04	1.6895	1.0278	1.8282	120.71	19.061	1.5234e-05	0.022359
349.65	2.4425	9.3478	0.10698	313.30	315.86	1.3656	1.0027	1.9514	255.96	1.1492	9.5677e-05	0.058740	0.0019448	1.3675	0.73124	411.53	429.04	1.6893	1.0284	1.8338	120.61	19.053	1.5252e-05	0.022403
349.78	2.4493	9.3390	0.10708	313.52	316.09	1.3663	1.0031	1.9550	255.27	1.1572	9.5464e-05	0.058682	0.0019320	1.3727	0.72848	411.55	429.03	1.6892	1.0290	1.8394	120.51	19.046	1.5269e-05	0.022447
349.91	2.4560	9.3303	0.10718	313.75	316.33	1.3669	1.0034	1.9587	254.57	1.1653	9.5252e-05	0.058624	0.0019193	1.3779	0.72572	411.56	429.03	1.6890	1.0296	1.8451	120.41	19.039	1.5287e-05	0.022492
350.03	2.4628	9.3215	0.10728	313.97	316.56	1.3676	1.0038	1.9623	253.88	1.1735	9.5041e-05	0.058567	0.0019067	1.3832	0.72298	411.58	429.03	1.6889	1.0303	1.8508	120.30	19.031	1.5304e-05	0.022536
350.16	2.4695	9.3127	0.10738	314.19	316.79	1.3682	1.0041	1.9660	253.19	1.1816	9.4830e-05	0.058509	0.0018941	1.3884	0.72025	411.59	429.03	1.6887	1.0309	1.8566	120.20	19.024	1.5322e-05	0.022581
350.29	2.4763	9.3039	0.10748	314.42	317.03	1.3689	1.0045	1.9697	252.49	1.1899	9.4620e-05	0.058451	0.0018815	1.3937	0.71754	411.61	429.02	1.6886	1.0315	1.8625	120.10	19.017	1.5340e-05	0.022626
350.41	2.4831	9.2951	0.10758	314.64	317.26	1.3695	1.0048	1.9735	251.80	1.1982	9.4409e-05	0.058394	0.0018690	1.3989	0.71483	411.62	429.02	1.6884	1.0321	1.8683	120.00	19.010	1.5358e-05	0.022672
350.54	2.4898	9.2863	0.10769	314.87	317.49	1.3702	1.0052	1.9773	251.11	1.2065	9.4200e-05	0.058336	0.0018566	1.4042	0.71215	411.63	429.01	1.6883	1.0327	1.8743	119.89	19.002	1.5376e-05	0.022717
350.66	2.4966	9.2775	0.10779	315.09	317.73	1.3708	1.0055	1.9811	250.42	1.2149	9.3990e-05	0.058279	0.0018441	1.4095	0.70947	411.65	429.01	1.6881	1.0334	1.8802	119.79	18.995	1.5394e-05	0.022763
350.79	2.5034	9.2687	0.10789	315.31	317.96	1.3714	1.0059	1.9849	249.73	1.2233	9.3782e-05	0.058222	0.0018317	1.4148	0.70680	411.66	429.00	1.6880	1.0340	1.8863	119.69	18.988	1.5412e-05	0.022809
350.92	2.5101	9.2598	0.10799	315.53	318.19	1.3721	1.0062	1.9888	249.04	1.2319	9.3573e-05	0.058165	0.0018194	1.4202	0.70415	411.67	429.00	1.6878	1.0346	1.8923	119.58	18.981	1.5430e-05	0.022855
351.04	2.5169	9.2510	0.10810	315.76	318.42	1.3727	1.0066	1.9927	248.36	1.2404	9.3365e-05	0.058108	0.0018071	1.4255	0.70151	411.69	428.99	1.6877	1.0352	1.8984	119.48	18.974	1.5448e-05	0.022902
351.17	2.5237	9.2421	0.10820	315.98	318.66	1.3734	1.0070	1.9966	247.67	1.2491	9.3157e-05	0.058051	0.0017948	1.4309	0.69888	411.70	428.98	1.6875	1.0359	1.9046	119.38	18.967	1.5466e-05	0.022948
351.29	2.5304	9.2333	0.10830	316.20	318.89	1.3740	1.0073	2.0005	246.98	1.2577	9.2950e-05	0.057994	0.0017826	1.4362	0.69627	411.71	428.98	1.6874	1.0365	1.9108	119.27	18.960	1.5485e-05	0.022995
351.41	2.5372	9.2244	0.10841	316.42	319.12	1.3746	1.0077	2.0045	246.29	1.2665	9.2743e-05	0.057938	0.0017705	1.4416	0.69366	411.72	428.97	1.6872	1.0371	1.9171	119.17	18.953	1.5503e-05	0.023042
351.54	2.5440	9.2155	0.10851	316.64	319.35	1.3753	1.0080	2.0086	245.61	1.2753	9.2537e-05	0.057881	0.0017583	1.4470	0.69107	411.73	428.96	1.6871	1.0377	1.9234	119.07	18.946	1.5522e-05	0.023089
351.66	2.5507	9.2067	0.10862	316.87	319.58	1.3759	1.0084	2.0126	244.92	1.2841	9.2330e-05	0.057825	0.0017463	1.4525	0.68849	411.74	428.95	1.6869	1.0383	1.9298	118.96	18.939	1.5540e-05	0.023137
351.79	2.5575	9.1978	0.10872	317.09	319.81	1.3766	1.0088	2.0167	244.23	1.2931	9.2125e-05	0.057769	0.0017342	1.4579	0.68592	411.75	428.94	1.6868	1.0390	1.9363	118.86	18.932	1.5559e-05	0.023185
351.91	2.5643	9.1889	0.10883	317.31	320.04	1.3772	1.0091	2.0208	243.55	1.3021	9.1919e-05	0.057713	0.0017222	1.4633	0.68336	411.76	428.93	1.6866	1.0396	1.9428	118.75	18.925	1.5578e-05	0.023233
352.03	2.5710	9.1800	0.10893	317.53	320.28	1.3778	1.0095	2.0250	242.86	1.3111	9.1714e-05	0.057657	0.0017103	1.4688	0.68082	411.77	428.92	1.6865	1.0402	1.9493	118.65	18.919	1.5596e-05	0.023281
352.15	2.5778	9.1710	0.10904	317.75	320.51	1.3785	1.0099	2.0292	242.18	1.3202	9.1509e-05	0.057601	0.0016983	1.4743	0.67828	411.78	428.91	1.6863	1.0408	1.9559	118.55	18.912	1.5615e-05	0.023329
352.28	2.5845	9.1621	0.10915	317.97	320.74	1.3791	1.0102	2.0334	241.50	1.3294	9.1305e-05	0.057545	0.0016865	1.4798	0.67576	411.79	428.90	1.6861	1.0415	1.9626	118.44	18.905	1.5634e-05	0.023378
352.40	2.5913	9.1532	0.10925	318.19	320.97	1.3797	1.0106	2.0376	240.81	1.3386	9.1101e-05	0.057489	0.0016746	1.4853	0.67325	411.79	428.89	1.6860	1.0421	1.9693	118.34	18.898	1.5653e-05	0.023427
352.52	2.5981	9.1442	0.10936	318.41	321.20	1.3804	1.0110	2.0419	240.13	1.3479	9.0898e-05	0.057433	0.0016628	1.4909	0.67075	411.80	428.88	1.6858	1.0427	1.9761	118.23	18.891	1.5672e-05	0.023476
352.64	2.6048	9.1353	0.10947	318.63	321.43	1.3810	1.0113	2.0463	239.45	1.3573	9.0694e-05	0.057378	0.0016511	1.4964	0.66826	411.81	428.87	1.6857	1.0434	1.9829	118.13	18.885	1.5692e-05	0.023525
352.76	2.6116	9.1263	0.10957	318.85	321.66	1.3816	1.0117	2.0506	238.76	1.3667	9.0491e-05	0.057323	0.0016394	1.5020	0.66578	411.81	428.86	1.6855	1.0440	1.9898	118.02	18.878	1.5711e-05	0.023575
352.89	2.6184	9.1173	0.10968	319.07	321.89	1.3823	1.0121	2.0550	238.08	1.3762	9.0289e-05	0.057267	0.0016277	1.5076	0.66331	411.82	428.84	1.6853	1.0446	1.9968	117.92	18.871	1.5730e-05	0.023625
353.01	2.6251	9.1083	0.10979	319.29	322.12	1.3829	1.0125	2.0595	237.40	1.3858	9.0087e-05	0.057212	0.0016161	1.5132	0.66085	411.83	428.83	1.6852	1.0452	2.0038	117.82	18.864	1.5750e-05	0.023675
353.13	2.6319	9.0993	0.10990	319.51	322.35	1.3835	1.0128	2.0640	236.72	1.3955	8.9885e-05	0.057157	0.0016045	1.5188	0.65841	411.83	428.82	1.6850	1.0459	2.0109	117.71	18.858	1.5769e-05	0.023725
353.25	2.6387	9.0903	0.11001	319.73	322.58	1.3841	1.0132	2.0685	236.04	1.4052	8.9683e-05	0.057102	0.0015930	1.5245	0.65597	411.84	428.80	1.6849	1.0465	2.0180	117.61	18.851	1.5789e-05	0.023776
353.37	2.6454	9.0813	0.11012	319.95	322.80	1.3848	1.0136	2.0731	235.36	1.4149	8.9482e-05	0.057047	0.0015815	1.5301	0.65354	411.84	428.79	1.6847	1.0471	2.0252	117.50	18.844	1.5808e-05	0.023827
353.49	2.6522	9.0722	0.11023	320.17	323.03	1.3854	1.0140	2.0777	234.68	1.4248	8.9281e-05	0.056993	0.0015700	1.5358	0.65113	411.85	428.77	1.6845	1.0478	2.0325	117.40	18.838	1.5828e-05	0.023878
353.61	2.6590	9.0632	0.11034	320.39	323.26	1.3860	1.0144	2.0823	234.00	1.4347	8.9080e-05	0.056938	0.0015586	1.5415	0.64872	411.85	428.76	1.6844	1.0484	2.0399	117.29	18.831	1.5848e-05	0.023929
353.73	2.6657	9.0541	0.11045	320.61	323.49	1.3867	1.0147	2.0870	233.32	1.4447	8.8880e-05	0.056884	0.0015472	1.5472	0.64633	411.85	428.74	1.6842	1.0490	2.0473	117.19	18.824	1.5868e-05	0.023981
353.85	2.6725	9.0451	0.11056	320.82	323.72	1.3873	1.0151	2.0917	232.64	1.4548	8.8680e-05	0.056829	0.0015358	1.5529	0.64394	411.86	428.72	1.6840	1.0497	2.0548	117.08	18.818	1.5888e-05	0.024033
353.97	2.6793	9.0360	0.11067	321.04	323.95	1.3879	1.0155	2.0965	231.96	1.4649	8.8480e-05	0.056775	0.0015245	1.5587	0.64157	411.86	428.71	1.6839	1.0503	2.0624	116.98	18.811	1.5908e-05	0.024085
354.08	2.6860	9.0269	0.11078	321.26	324.18	1.3885	1.0159	2.1013	231.29	1.4751	8.8281e-05	0.056721	0.0015133	1.5645	0.63920	411.86	428.69	1.6837	1.0509	2.0700	116.87	18.804	1.5928e-05	0.024138
354.20	2.6928	9.0178	0.11089	321.48	324.41	1.3892	1.0163	2.1062	230.61	1.4854	8.8082e-05	0.056667	0.0015020	1.5702	0.63685	411.86	428.67	1.6835	1.0516	2.0777	116.77	18.798	1.5949e-05	0.024191
354.32	2.6996	9.0087	0.11100	321.70	324.63	1.3898	1.0167	2.1111	229.93	1.4958	8.7883e-05	0.056613	0.0014909	1.5760	0.63450	411.87	428.65	1.6834	1.0522	2.0855	116.66	18.791	1.5969e-05	0.024244
354.44	2.7063	8.9995	0.11112	321.92	324.86	1.3904	1.0171	2.1160	229.25	1.5062	8.7684e-05	0.056559	0.0014797	1.5819	0.63216	411.87	428.63	1.6832	1.0528	2.0933	116.56	18.785	1.5990e-05	0.024297
354.56	2.7131	8.9904	0.11123	322.13	325.09	1.3910	1.0175	2.1210	228.58	1.5168	8.7486e-05	0.056505	0.0014686	1.5877	0.62984	411.87	428.62	1.6830	1.0535	2.1012	116.45	18.778	1.6010e-05	0.024351
354.67	2.7198	8.9812	0.11134	322.35	325.32	1.3916	1.0179	2.1260	227.90	1.5274	8.7288e-05	0.056452	0.0014575	1.5936	0.62752	411.87	428.60	1.6828	1.0541	2.1092	116.34	18.772	1.6031e-05	0.024405
354.79	2.7266	8.9720	0.11146	322.57	325.55	1.3923	1.0183	2.1311	227.22	1.5381	8.7090e-05	0.056398	0.0014465	1.5995	0.62521	411.87	428.58	1.6827	1.0547	2.1173	116.24	18.765	1.6052e-05	0.024459
354.91	2.7334	8.9629	0.11157	322.79	325.77	1.3929	1.0187	2.1363	226.55	1.5488	8.6893e-05	0.056345	0.0014355	1.6054	0.62291	411.87	428.56	1.6825	1.0554	2.1255	116.13	18.758	1.6073e-05	0.024514
355.03	2.7401	8.9537	0.11169	323.00	326.00	1.3935	1.0191	2.1415	225.87	1.5597	8.6696e-05	0.056292	0.0014246	1.6113	0.62062	411.87	428.53	1.6823	1.0560	2.1337	116.03	18.752	1.6094e-05	0.024568
355.14	2.7469	8.9444	0.11180	323.22	326.23	1.3941	1.0195	2.1467	225.20	1.5706	8.6499e-05	0.056239	0.0014137	1.6172	0.61834	411.87	428.51	1.6821	1.0567	2.1421	115.92	18.745	1.6115e-05	0.024624
355.26	2.7537	8.9352	0.11192	323.44	326.46	1.3948	1.0199	2.1520	224.52	1.5816	8.6302e-05	0.056186	0.0014028	1.6232	0.61607	411.86	428.49	1.6820	1.0573	2.1505	115.82	18.739	1.6136e-05	0.024679
355.38	2.7604	8.9260	0.11203	323.65	326.68	1.3954	1.0203	2.1573	223.85	1.5927	8.6106e-05	0.056133	0.0013919	1.6292	0.61381	411.86	428.47	1.6818	1.0580	2.1590	115.71	18.732	1.6157e-05	0.024735
355.49	2.7672	8.9167	0.11215	323.87	326.91	1.3960	1.0207	2.1627	223.17	1.6039	8.5910e-05	0.056080	0.0013811	1.6352	0.61155	411.86	428.44	1.6816	1.0586	2.1675	115.60	18.726	1.6178e-05	0.024791
355.61	2.7740	8.9074	0.11227	324.09	327.14	1.3966	1.0211	2.1681	222.50	1.6152	8.5714e-05	0.056027	0.0013704	1.6412	0.60931	411.86	428.42	1.6814	1.0592	2.1762	115.50	18.719	1.6200e-05	0.024847
355.72	2.7807	8.8982	0.11238	324.30	327.37	1.3972	1.0215	2.1736	221.82	1.6265	8.5518e-05	0.055975	0.0013597	1.6473	0.60707	411.85	428.40	1.6812	1.0599	2.1850	115.39	18.712	1.6221e-05	0.024904
355.84	2.7875	8.8889	0.11250	324.52	327.59	1.3978	1.0219	2.1792	221.15	1.6380	8.5323e-05	0.055923	0.0013490	1.6533	0.60484	411.85	428.37	1.6811	1.0605	2.1938	115.28	18.706	1.6243e-05	0.024961
355.95	2.7943	8.8795	0.11262	324.74	327.82	1.3985	1.0223	2.1848	220.48	1.6495	8.5127e-05	0.055870	0.0013383	1.6594	0.60263	411.84	428.35	1.6809	1.0612	2.2027	115.18	18.699	1.6265e-05	0.025018
356.07	2.8010	8.8702	0.11274	324.95	328.05	1.3991	1.0228	2.1905	219.80	1.6612	8.4932e-05	0.055818	0.0013277	1.6655	0.60042	411.84	428.32	1.6807	1.0618	2.2118	115.07	18.693	1.6287e-05	0.025076
356.18	2.8078	8.8609	0.11286	325.17	328.27	1.3997	1.0232	2.1962	219.13	1.6729	8.4738e-05	0.055766	0.0013172	1.6716	0.59821	411.83	428.30	1.6805	1.0625	2.2209	114.96	18.686	1.6309e-05	0.025134
356.30	2.8146	8.8515	0.11298	325.38	328.50	1.4003	1.0236	2.2020	218.46	1.6847	8.4543e-05	0.055714	0.0013066	1.6778	0.59602	411.83	428.27	1.6803	1.0631	2.2301	114.86	18.679	1.6331e-05	0.025193
356.41	2.8213	8.8421	0.11310	325.60	328.73	1.4009	1.0240	2.2078	217.78	1.6966	8.4349e-05	0.055662	0.0012961	1.6840	0.59383	411.82	428.24	1.6801	1.0638	2.2394	114.75	18.673	1.6353e-05	0.025251
356.53	2.8281	8.8327	0.11322	325.82	328.95	1.4015	1.0245	2.2137	217.11	1.7086	8.4155e-05	0.055611	0.0012857	1.6902	0.59166	411.82	428.22	1.6799	1.0644	2.2489	114.64	18.666	1.6375e-05	0.025310
356.64	2.8348	8.8233	0.11334	326.03	329.18	1.4022	1.0249	2.2197	216.44	1.7207	8.3961e-05	0.055559	0.0012753	1.6964	0.58949	411.81	428.19	1.6798	1.0651	2.2584	114.54	18.660	1.6398e-05	0.025370
356.75	2.8416	8.8139	0.11346	326.25	329.41	1.4028	1.0253	2.2257	215.76	1.7329	8.3767e-05	0.055508	0.0012649	1.7026	0.58733	411.80	428.16	1.6796	1.0657	2.2680	114.43	18.653	1.6420e-05	0.025429
356.87	2.8484	8.8044	0.11358	326.46	329.63	1.4034	1.0257	2.2318	215.09	1.7452	8.3574e-05	0.055457	0.0012545	1.7089	0.58517	411.79	428.13	1.6794	1.0664	2.2777	114.32	18.646	1.6443e-05	0.025490
356.98	2.8551	8.7950	0.11370	326.68	329.86	1.4040	1.0262	2.2379	214.42	1.7576	8.3381e-05	0.055406	0.0012442	1.7152	0.58303	411.79	428.10	1.6792	1.0670	2.2875	114.22	18.640	1.6466e-05	0.025550
357.09	2.8619	8.7855	0.11382	326.89	330.09	1.4046	1.0266	2.2442	213.75	1.7701	8.3188e-05	0.055355	0.0012340	1.7215	0.58089	411.78	428.07	1.6790	1.0677	2.2975	114.11	18.633	1.6489e-05	0.025611
357.21	2.8687	8.7760	0.11395	327.11	330.31	1.4052	1.0271	2.2504	213.08	1.7828	8.2995e-05	0.055304	0.0012237	1.7278	0.57876	411.77	428.04	1.6788	1.0683	2.3075	114.00	18.626	1.6512e-05	0.025672
357.32	2.8754	8.7665	0.11407	327.32	330.54	1.4058	1.0275	2.2568	212.40	1.7955	8.2802e-05	0.055253	0.0012135	1.7342	0.57664	411.76	428.01	1.6786	1.0690	2.3177	113.89	18.619	1.6535e-05	0.025734
357.43	2.8822	8.7569	0.11420	327.54	330.77	1.4064	1.0279	2.2632	211.73	1.8083	8.2609e-05	0.055203	0.0012034	1.7406	0.57453	411.75	427.98	1.6784	1.0696	2.3280	113.79	18.613	1.6558e-05	0.025796
357.54	2.8890	8.7474	0.11432	327.75	330.99	1.4071	1.0284	2.2697	211.06	1.8212	8.2417e-05	0.055152	0.0011933	1.7470	0.57242	411.74	427.94	1.6782	1.0703	2.3384	113.68	18.606	1.6582e-05	0.025858
357.65	2.8957	8.7378	0.11445	327.97	331.22	1.4077	1.0288	2.2763	210.39	1.8342	8.2225e-05	0.055102	0.0011832	1.7534	0.57032	411.73	427.91	1.6780	1.0710	2.3489	113.57	18.599	1.6605e-05	0.025921
357.77	2.9025	8.7282	0.11457	328.18	331.44	1.4083	1.0293	2.2829	209.72	1.8474	8.2033e-05	0.055052	0.0011731	1.7599	0.56823	411.71	427.88	1.6778	1.0716	2.3595	113.46	18.592	1.6629e-05	0.025984
357.88	2.9093	8.7186	0.11470	328.40	331.67	1.4089	1.0297	2.2896	209.05	1.8606	8.1841e-05	0.055002	0.0011631	1.7663	0.56615	411.70	427.85	1.6776	1.0723	2.3703	113.36	18.586	1.6652e-05	0.026047
357.99	2.9160	8.7090	0.11482	328.61	331.90	1.4095	1.0302	2.2964	208.38	1.8740	8.1649e-05	0.054952	0.0011531	1.7728	0.56407	411.69	427.81	1.6774	1.0729	2.3811	113.25	18.579	1.6676e-05	0.026111
358.10	2.9228	8.6993	0.11495	328.83	332.12	1.4101	1.0306	2.3033	207.71	1.8875	8.1458e-05	0.054902	0.0011432	1.7794	0.56200	411.68	427.78	1.6772	1.0736	2.3921	113.14	18.572	1.6700e-05	0.026176
358.21	2.9296	8.6896	0.11508	329.04	332.35	1.4107	1.0311	2.3102	207.04	1.9011	8.1267e-05	0.054853	0.0011333	1.7859	0.55994	411.66	427.74	1.6770	1.0743	2.4033	113.03	18.565	1.6724e-05	0.026240
358.32	2.9363	8.6799	0.11521	329.26	332.58	1.4113	1.0316	2.3173	206.37	1.9148	8.1075e-05	0.054803	0.0011234	1.7925	0.55788	411.65	427.70	1.6768	1.0749	2.4145	112.92	18.558	1.6749e-05	0.026305
358.43	2.9431	8.6702	0.11534	329.47	332.80	1.4119	1.0320	2.3244	205.69	1.9286	8.0884e-05	0.054754	0.0011136	1.7991	0.55583	411.64	427.67	1.6766	1.0756	2.4259	112.81	18.551	1.6773e-05	0.026371
358.54	2.9498	8.6605	0.11547	329.69	333.03	1.4125	1.0325	2.3316	205.02	1.9426	8.0693e-05	0.054705	0.0011038	1.8057	0.55379	411.62	427.63	1.6764	1.0763	2.4374	112.71	18.544	1.6798e-05	0.026437
358.65	2.9566	8.6507	0.11560	329.90	333.25	1.4132	1.0330	2.3388	204.35	1.9567	8.0503e-05	0.054656	0.0010940	1.8124	0.55175	411.61	427.59	1.6762	1.0769	2.4491	112.60	18.537	1.6822e-05	0.026503
358.76	2.9634	8.6409	0.11573	330.12	333.48	1.4138	1.0334	2.3462	203.68	1.9708	8.0312e-05	0.054607	0.0010843	1.8191	0.54973	411.59	427.56	1.6760	1.0776	2.4609	112.49	18.530	1.6847e-05	0.026570
358.87	2.9701	8.6311	0.11586	330.33	333.71	1.4144	1.0339	2.3537	203.01	1.9852	8.0121e-05	0.054558	0.0010746	1.8258	0.54770	411.57	427.52	1.6758	1.0783	2.4729	112.38	18.523	1.6872e-05	0.026638
358.98	2.9769	8.6213	0.11599	330.55	333.93	1.4150	1.0344	2.3612	202.34	1.9996	7.9931e-05	0.054510	0.0010650	1.8325	0.54569	411.56	427.48	1.6756	1.0790	2.4850	112.27	18.516	1.6897e-05	0.026705
359.09	2.9837	8.6115	0.11612	330.76	334.16	1.4156	1.0348	2.3688	201.67	2.0142	7.9741e-05	0.054462	0.0010554	1.8393	0.54368	411.54	427.44	1.6754	1.0796	2.4972	112.16	18.509	1.6922e-05	0.026774
359.20	2.9904	8.6016	0.11626	330.98	334.38	1.4162	1.0353	2.3765	201.00	2.0289	7.9550e-05	0.054413	0.0010458	1.8461	0.54168	411.52	427.40	1.6751	1.0803	2.5096	112.05	18.502	1.6948e-05	0.026842
359.31	2.9972	8.5917	0.11639	331.19	334.61	1.4168	1.0358	2.3844	200.33	2.0437	7.9360e-05	0.054365	0.0010362	1.8529	0.53969	411.50	427.36	1.6749	1.0810	2.5222	111.95	18.495	1.6973e-05	0.026911
359.42	3.0040	8.5818	0.11653	331.41	334.84	1.4174	1.0363	2.3923	199.66	2.0587	7.9170e-05	0.054318	0.0010267	1.8598	0.53770	411.48	427.31	1.6747	1.0817	2.5349	111.84	18.488	1.6999e-05	0.026981
359.53	3.0107	8.5719	0.11666	331.62	335.06	1.4180	1.0368	2.4003	198.99	2.0738	7.8981e-05	0.054270	0.0010173	1.8667	0.53571	411.46	427.27	1.6745	1.0823	2.5478	111.73	18.480	1.7025e-05	0.027051
359.63	3.0175	8.5619	0.11680	331.84	335.29	1.4186	1.0373	2.4084	198.32	2.0890	7.8791e-05	0.054222	0.0010078	1.8736	0.53374	411.44	427.23	1.6743	1.0830	2.5608	111.62	18.473	1.7051e-05	0.027122
359.74	3.0243	8.5519	0.11693	332.05	335.52	1.4192	1.0378	2.4166	197.65	2.1044	7.8601e-05	0.054175	0.00099841	1.8805	0.53177	411.42	427.19	1.6741	1.0837	2.5740	111.51	18.466	1.7077e-05	0.027193
359.85	3.0310	8.5419	0.11707	332.26	335.74	1.4198	1.0383	2.4249	196.98	2.1199	7.8411e-05	0.054128	0.00098905	1.8875	0.52981	411.40	427.14	1.6738	1.0844	2.5874	111.40	18.458	1.7103e-05	0.027264
359.96	3.0378	8.5319	0.11721	332.48	335.97	1.4205	1.0388	2.4334	196.31	2.1356	7.8222e-05	0.054081	0.00097971	1.8945	0.52785	411.38	427.10	1.6736	1.0851	2.6009	111.29	18.451	1.7130e-05	0.027336
360.06	3.0446	8.5218	0.11735	332.69	336.20	1.4211	1.0393	2.4419	195.64	2.1514	7.8032e-05	0.054034	0.00097042	1.9015	0.52590	411.36	427.05	1.6734	1.0858	2.6147	111.18	18.443	1.7156e-05	0.027409
360.17	3.0513	8.5117	0.11749	332.91	336.42	1.4217	1.0398	2.4505	194.97	2.1674	7.7843e-05	0.053988	0.00096116	1.9086	0.52395	411.34	427.01	1.6732	1.0865	2.6286	111.07	18.436	1.7183e-05	0.027482
360.28	3.0581	8.5016	0.11762	333.12	336.65	1.4223	1.0403	2.4593	194.31	2.1835	7.7654e-05	0.053941	0.00095193	1.9157	0.52201	411.31	426.96	1.6729	1.0871	2.6427	110.96	18.428	1.7210e-05	0.027556
360.39	3.0649	8.4915	0.11777	333.34	336.88	1.4229	1.0408	2.4682	193.64	2.1997	7.7464e-05	0.053895	0.00094274	1.9228	0.52008	411.29	426.91	1.6727	1.0878	2.6570	110.85	18.421	1.7237e-05	0.027630
360.49	3.0716	8.4813	0.11791	333.55	337.10	1.4235	1.0413	2.4772	192.97	2.2161	7.7275e-05	0.053849	0.00093358	1.9299	0.51815	411.27	426.86	1.6725	1.0885	2.6714	110.74	18.413	1.7264e-05	0.027705
360.60	3.0784	8.4711	0.11805	333.77	337.33	1.4241	1.0418	2.4863	192.30	2.2327	7.7086e-05	0.053803	0.00092446	1.9371	0.51623	411.24	426.82	1.6723	1.0892	2.6861	110.63	18.405	1.7292e-05	0.027780
360.71	3.0851	8.4609	0.11819	333.98	337.56	1.4247	1.0424	2.4955	191.63	2.2494	7.6897e-05	0.053758	0.00091537	1.9444	0.51431	411.22	426.77	1.6720	1.0899	2.7010	110.52	18.398	1.7319e-05	0.027856
360.81	3.0919	8.4506	0.11833	334.20	337.78	1.4253	1.0429	2.5049	190.96	2.2663	7.6708e-05	0.053712	0.00090632	1.9516	0.51240	411.19	426.72	1.6718	1.0906	2.7160	110.41	18.390	1.7347e-05	0.027932
360.92	3.0987	8.4403	0.11848	334.41	338.01	1.4259	1.0434	2.5144	190.29	2.2833	7.6519e-05	0.053667	0.00089731	1.9589	0.51049	411.16	426.67	1.6716	1.0913	2.7313	110.30	18.382	1.7375e-05	0.028009
361.02	3.1054	8.4300	0.11862	334.63	338.24	1.4265	1.0439	2.5240	189.62	2.3005	7.6330e-05	0.053622	0.00088832	1.9662	0.50859	411.14	426.62	1.6713	1.0920	2.7468	110.19	18.374	1.7403e-05	0.028086
361.13	3.1122	8.4197	0.11877	334.84	338.47	1.4271	1.0445	2.5338	188.95	2.3179	7.6141e-05	0.053578	0.00087938	1.9736	0.50670	411.11	426.56	1.6711	1.0927	2.7626	110.08	18.366	1.7431e-05	0.028164
361.23	3.1190	8.4093	0.11892	335.06	338.69	1.4277	1.0450	2.5437	188.28	2.3354	7.5952e-05	0.053533	0.00087046	1.9810	0.50481	411.08	426.51	1.6709	1.0934	2.7785	109.97	18.358	1.7460e-05	0.028243
361.34	3.1257	8.3989	0.11906	335.27	338.92	1.4284	1.0455	2.5537	187.61	2.3531	7.5763e-05	0.053489	0.00086159	1.9884	0.50292	411.05	426.46	1.6706	1.0941	2.7947	109.86	18.350	1.7489e-05	0.028322
361.44	3.1325	8.3885	0.11921	335.49	339.15	1.4290	1.0461	2.5639	186.94	2.3710	7.5574e-05	0.053445	0.00085274	1.9958	0.50104	411.02	426.41	1.6704	1.0948	2.8111	109.75	18.342	1.7517e-05	0.028402
361.55	3.1393	8.3780	0.11936	335.70	339.38	1.4296	1.0466	2.5742	186.27	2.3890	7.5385e-05	0.053401	0.00084393	2.0033	0.49917	410.99	426.35	1.6701	1.0955	2.8277	109.64	18.333	1.7546e-05	0.028483
361.65	3.1460	8.3675	0.11951	335.92	339.60	1.4302	1.0472	2.5847	185.60	2.4073	7.5196e-05	0.053357	0.00083516	2.0109	0.49730	410.96	426.30	1.6699	1.0963	2.8446	109.52	18.325	1.7576e-05	0.028564
361.76	3.1528	8.3570	0.11966	336.13	339.83	1.4308	1.0477	2.5953	184.93	2.4257	7.5007e-05	0.053314	0.00082642	2.0184	0.49544	410.93	426.24	1.6696	1.0970	2.8617	109.41	18.317	1.7605e-05	0.028646
361.86	3.1596	8.3464	0.11981	336.35	340.06	1.4314	1.0483	2.6061	184.26	2.4443	7.4818e-05	0.053271	0.00081772	2.0260	0.49358	410.90	426.18	1.6694	1.0977	2.8791	109.30	18.308	1.7635e-05	0.028728
361.97	3.1663	8.3359	0.11996	336.57	340.29	1.4320	1.0489	2.6171	183.59	2.4631	7.4629e-05	0.053228	0.00080905	2.0337	0.49172	410.87	426.13	1.6692	1.0984	2.8968	109.19	18.300	1.7665e-05	0.028811
362.07	3.1731	8.3252	0.12012	336.78	340.52	1.4326	1.0494	2.6282	182.92	2.4820	7.4440e-05	0.053185	0.00080041	2.0413	0.48987	410.83	426.07	1.6689	1.0991	2.9147	109.08	18.291	1.7695e-05	0.028895
362.17	3.1799	8.3146	0.12027	337.00	340.75	1.4332	1.0500	2.6394	182.25	2.5012	7.4251e-05	0.053143	0.00079181	2.0491	0.48803	410.80	426.01	1.6687	1.0998	2.9329	108.97	18.283	1.7725e-05	0.028979
362.28	3.1866	8.3039	0.12043	337.21	340.97	1.4338	1.0506	2.6509	181.58	2.5206	7.4062e-05	0.053101	0.00078324	2.0568	0.48619	410.77	425.95	1.6684	1.1006	2.9513	108.86	18.274	1.7755e-05	0.029065
362.38	3.1934	8.2931	0.12058	337.43	341.20	1.4344	1.0511	2.6625	180.90	2.5401	7.3873e-05	0.053059	0.00077471	2.0646	0.48435	410.73	425.89	1.6681	1.1013	2.9701	108.74	18.265	1.7786e-05	0.029150
362.48	3.2001	8.2824	0.12074	337.65	341.43	1.4351	1.0517	2.6743	180.23	2.5599	7.3683e-05	0.053018	0.00076621	2.0724	0.48252	410.70	425.83	1.6679	1.1020	2.9891	108.63	18.256	1.7817e-05	0.029237
362.59	3.2069	8.2716	0.12090	337.86	341.66	1.4357	1.0523	2.6863	179.56	2.5798	7.3494e-05	0.052976	0.00075774	2.0803	0.48070	410.66	425.77	1.6676	1.1027	3.0085	108.52	18.247	1.7848e-05	0.029324
362.69	3.2137	8.2607	0.12105	338.08	341.89	1.4363	1.0529	2.6985	178.89	2.6000	7.3305e-05	0.052936	0.00074931	2.0882	0.47887	410.62	425.71	1.6674	1.1035	3.0281	108.41	18.238	1.7879e-05	0.029412
362.79	3.2204	8.2499	0.12121	338.29	342.12	1.4369	1.0535	2.7109	178.22	2.6204	7.3115e-05	0.052895	0.00074092	2.0962	0.47706	410.59	425.64	1.6671	1.1042	3.0481	108.30	18.229	1.7911e-05	0.029501
362.89	3.2272	8.2390	0.12137	338.51	342.35	1.4375	1.0541	2.7235	177.55	2.6410	7.2926e-05	0.052855	0.00073256	2.1042	0.47524	410.55	425.58	1.6668	1.1049	3.0684	108.18	18.220	1.7942e-05	0.029591
363.00	3.2340	8.2280	0.12154	338.73	342.58	1.4381	1.0547	2.7362	176.88	2.6618	7.2736e-05	0.052815	0.00072423	2.1122	0.47343	410.51	425.51	1.6666	1.1057	3.0890	108.07	18.210	1.7974e-05	0.029681
363.10	3.2407	8.2170	0.12170	338.95	342.81	1.4387	1.0553	2.7492	176.21	2.6828	7.2547e-05	0.052775	0.00071594	2.1203	0.47163	410.47	425.45	1.6663	1.1064	3.1099	107.96	18.201	1.8007e-05	0.029772
363.20	3.2475	8.2060	0.12186	339.16	343.04	1.4393	1.0559	2.7624	175.54	2.7041	7.2357e-05	0.052736	0.00070768	2.1284	0.46983	410.43	425.38	1.6660	1.1072	3.1312	107.84	18.191	1.8039e-05	0.029864
363.30	3.2543	8.1949	0.12203	339.38	343.27	1.4399	1.0565	2.7759	174.87	2.7256	7.2167e-05	0.052697	0.00069946	2.1366	0.46803	410.39	425.32	1.6658	1.1079	3.1529	107.73	18.182	1.8072e-05	0.029956
363.40	3.2610	8.1838	0.12219	339.60	343.50	1.4406	1.0571	2.7895	174.19	2.7473	7.1977e-05	0.052658	0.00069127	2.1448	0.46624	410.35	425.25	1.6655	1.1086	3.1749	107.62	18.172	1.8105e-05	0.030050
363.50	3.2678	8.1727	0.12236	339.82	343.73	1.4412	1.0577	2.8034	173.52	2.7692	7.1787e-05	0.052620	0.00068311	2.1531	0.46445	410.30	425.18	1.6652	1.1094	3.1973	107.51	18.162	1.8138e-05	0.030144
363.61	3.2746	8.1615	0.12253	340.03	343.97	1.4418	1.0584	2.8175	172.85	2.7914	7.1597e-05	0.052582	0.00067499	2.1614	0.46267	410.26	425.11	1.6650	1.1102	3.2200	107.39	18.152	1.8171e-05	0.030240
363.71	3.2813	8.1502	0.12270	340.25	344.20	1.4424	1.0590	2.8319	172.18	2.8139	7.1406e-05	0.052544	0.00066690	2.1697	0.46088	410.22	425.04	1.6647	1.1109	3.2432	107.28	18.142	1.8205e-05	0.030336
363.81	3.2881	8.1389	0.12287	340.47	344.43	1.4430	1.0596	2.8465	171.51	2.8365	7.1216e-05	0.052507	0.00065885	2.1781	0.45911	410.17	424.97	1.6644	1.1117	3.2668	107.17	18.132	1.8239e-05	0.030433
363.91	3.2949	8.1276	0.12304	340.69	344.66	1.4436	1.0603	2.8613	170.83	2.8595	7.1025e-05	0.052470	0.00065083	2.1866	0.45733	410.13	424.90	1.6641	1.1124	3.2908	107.05	18.122	1.8273e-05	0.030531
364.01	3.3016	8.1162	0.12321	340.91	344.89	1.4443	1.0609	2.8765	170.16	2.8826	7.0835e-05	0.052434	0.00064284	2.1951	0.45556	410.08	424.82	1.6638	1.1132	3.3152	106.94	18.111	1.8308e-05	0.030630
364.11	3.3084	8.1048	0.12338	341.13	345.13	1.4449	1.0616	2.8919	169.49	2.9061	7.0644e-05	0.052397	0.00063489	2.2036	0.45379	410.03	424.75	1.6635	1.1139	3.3400	106.82	18.101	1.8342e-05	0.030729
364.21	3.3152	8.0934	0.12356	341.34	345.36	1.4455	1.0622	2.9076	168.82	2.9298	7.0452e-05	0.052362	0.00062698	2.2122	0.45203	409.99	424.67	1.6633	1.1147	3.3653	106.71	18.090	1.8377e-05	0.030830
364.31	3.3219	8.0819	0.12373	341.56	345.59	1.4461	1.0629	2.9235	168.14	2.9538	7.0261e-05	0.052327	0.00061909	2.2209	0.45027	409.94	424.60	1.6630	1.1155	3.3911	106.60	18.080	1.8413e-05	0.030932
364.41	3.3287	8.0703	0.12391	341.78	345.83	1.4467	1.0635	2.9398	167.47	2.9780	7.0070e-05	0.052292	0.00061125	2.2296	0.44851	409.89	424.52	1.6627	1.1163	3.4173	106.48	18.069	1.8448e-05	0.031034
364.51	3.3354	8.0587	0.12409	342.00	346.06	1.4473	1.0642	2.9564	166.80	3.0025	6.9878e-05	0.052258	0.00060343	2.2383	0.44676	409.84	424.44	1.6624	1.1170	3.4440	106.37	18.058	1.8484e-05	0.031138
364.61	3.3422	8.0470	0.12427	342.22	346.29	1.4480	1.0649	2.9732	166.13	3.0273	6.9686e-05	0.052224	0.00059565	2.2471	0.44501	409.79	424.37	1.6621	1.1178	3.4712	106.25	18.047	1.8520e-05	0.031243
364.71	3.3490	8.0353	0.12445	342.44	346.53	1.4486	1.0655	2.9904	165.45	3.0524	6.9494e-05	0.052190	0.00058791	2.2560	0.44326	409.74	424.29	1.6618	1.1186	3.4990	106.14	18.035	1.8557e-05	0.031349
364.81	3.3557	8.0236	0.12463	342.66	346.76	1.4492	1.0662	3.0080	164.78	3.0778	6.9302e-05	0.052157	0.00058020	2.2649	0.44152	409.68	424.21	1.6615	1.1194	3.5272	106.02	18.024	1.8594e-05	0.031456
364.90	3.3625	8.0118	0.12482	342.89	347.00	1.4498	1.0669	3.0259	164.10	3.1035	6.9109e-05	0.052125	0.00057252	2.2739	0.43977	409.63	424.12	1.6612	1.1202	3.5560	105.91	18.013	1.8631e-05	0.031564
365.00	3.3693	7.9999	0.12500	343.11	347.23	1.4504	1.0676	3.0441	163.43	3.1294	6.8916e-05	0.052093	0.00056488	2.2829	0.43803	409.58	424.04	1.6609	1.1209	3.5854	105.79	18.001	1.8668e-05	0.031673
365.10	3.3760	7.9880	0.12519	343.33	347.47	1.4511	1.0683	3.0627	162.76	3.1557	6.8723e-05	0.052062	0.00055727	2.2920	0.43630	409.52	423.96	1.6606	1.1217	3.6154	105.68	17.989	1.8706e-05	0.031783
365.20	3.3828	7.9760	0.12538	343.55	347.71	1.4517	1.0690	3.0816	162.08	3.1823	6.8530e-05	0.052031	0.00054970	2.3012	0.43456	409.47	423.87	1.6603	1.1225	3.6459	105.56	17.977	1.8744e-05	0.031894
365.30	3.3896	7.9640	0.12557	343.77	347.94	1.4523	1.0697	3.1010	161.41	3.2092	6.8336e-05	0.052001	0.00054216	2.3104	0.43283	409.41	423.79	1.6599	1.1233	3.6771	105.45	17.965	1.8782e-05	0.032007
365.40	3.3963	7.9519	0.12576	343.99	348.18	1.4529	1.0704	3.1207	160.73	3.2365	6.8142e-05	0.051971	0.00053466	2.3196	0.43110	409.35	423.70	1.6596	1.1241	3.7089	105.33	17.953	1.8821e-05	0.032121
365.49	3.4031	7.9397	0.12595	344.22	348.42	1.4536	1.0711	3.1409	160.06	3.2640	6.7948e-05	0.051942	0.00052719	2.3289	0.42938	409.29	423.61	1.6593	1.1249	3.7413	105.22	17.940	1.8860e-05	0.032236
365.59	3.4099	7.9275	0.12614	344.44	348.66	1.4542	1.0719	3.1615	159.38	3.2920	6.7753e-05	0.051913	0.00051975	2.3383	0.42765	409.23	423.52	1.6590	1.1257	3.7745	105.10	17.928	1.8900e-05	0.032352
365.69	3.4166	7.9152	0.12634	344.66	348.89	1.4548	1.0726	3.1825	158.71	3.3202	6.7558e-05	0.051885	0.00051235	2.3478	0.42593	409.17	423.43	1.6587	1.1266	3.8083	104.98	17.915	1.8939e-05	0.032470
365.79	3.4234	7.9029	0.12654	344.89	349.13	1.4555	1.0733	3.2039	158.03	3.3488	6.7363e-05	0.051858	0.00050498	2.3573	0.42421	409.11	423.34	1.6583	1.1274	3.8428	104.87	17.902	1.8980e-05	0.032589
365.88	3.4302	7.8905	0.12673	345.11	349.37	1.4561	1.0741	3.2259	157.35	3.3777	6.7168e-05	0.051831	0.00049765	2.3669	0.42249	409.05	423.25	1.6580	1.1282	3.8781	104.75	17.889	1.9020e-05	0.032709
365.98	3.4369	7.8781	0.12693	345.34	349.61	1.4567	1.0748	3.2483	156.68	3.4070	6.6972e-05	0.051805	0.00049036	2.3765	0.42078	408.98	423.16	1.6577	1.1290	3.9141	104.63	17.876	1.9061e-05	0.032831
366.08	3.4437	7.8655	0.12714	345.56	349.85	1.4574	1.0756	3.2712	156.00	3.4367	6.6775e-05	0.051780	0.00048309	2.3863	0.41907	408.92	423.06	1.6573	1.1298	3.9510	104.52	17.862	1.9102e-05	0.032954
366.17	3.4504	7.8530	0.12734	345.79	350.09	1.4580	1.0763	3.2946	155.32	3.4668	6.6579e-05	0.051756	0.00047587	2.3961	0.41735	408.85	422.97	1.6570	1.1307	3.9886	104.40	17.849	1.9144e-05	0.033079
366.27	3.4572	7.8403	0.12755	346.01	350.34	1.4586	1.0771	3.3185	154.65	3.4972	6.6382e-05	0.051732	0.00046868	2.4059	0.41564	408.79	422.87	1.6567	1.1315	4.0271	104.28	17.835	1.9186e-05	0.033205
366.37	3.4640	7.8276	0.12775	346.24	350.58	1.4593	1.0779	3.3430	153.97	3.5280	6.6184e-05	0.051709	0.00046152	2.4158	0.41393	408.72	422.77	1.6563	1.1323	4.0665	104.16	17.821	1.9229e-05	0.033333
366.46	3.4707	7.8148	0.12796	346.47	350.82	1.4599	1.0787	3.3681	153.29	3.5593	6.5986e-05	0.051686	0.00045440	2.4258	0.41223	408.65	422.67	1.6560	1.1332	4.1068	104.05	17.806	1.9272e-05	0.033462
366.56	3.4775	7.8019	0.12817	346.69	351.06	1.4605	1.0795	3.3938	152.61	3.5909	6.5788e-05	0.051665	0.00044731	2.4359	0.41052	408.58	422.57	1.6556	1.1340	4.1480	103.93	17.792	1.9315e-05	0.033593
366.66	3.4843	7.7890	0.12839	346.92	351.31	1.4612	1.0803	3.4200	151.94	3.6229	6.5589e-05	0.051644	0.00044026	2.4461	0.40882	408.51	422.47	1.6553	1.1349	4.1902	103.81	17.777	1.9359e-05	0.033725
366.75	3.4910	7.7759	0.12860	347.15	351.55	1.4618	1.0811	3.4470	151.26	3.6554	6.5390e-05	0.051625	0.00043324	2.4563	0.40711	408.44	422.37	1.6549	1.1357	4.2334	103.69	17.762	1.9403e-05	0.033859
366.85	3.4978	7.7629	0.12882	347.38	351.79	1.4625	1.0819	3.4745	150.58	3.6883	6.5190e-05	0.051606	0.00042626	2.4666	0.40541	408.37	422.26	1.6546	1.1366	4.2776	103.57	17.747	1.9448e-05	0.033995
366.94	3.5046	7.7497	0.12904	347.61	352.04	1.4631	1.0827	3.5028	149.90	3.7216	6.4990e-05	0.051588	0.00041931	2.4770	0.40371	408.29	422.16	1.6542	1.1375	4.3229	103.45	17.732	1.9493e-05	0.034133
367.04	3.5113	7.7364	0.12926	347.84	352.29	1.4638	1.0835	3.5317	149.22	3.7554	6.4789e-05	0.051570	0.00041240	2.4875	0.40201	408.22	422.05	1.6538	1.1383	4.3693	103.33	17.716	1.9539e-05	0.034272
367.13	3.5181	7.7231	0.12948	348.07	352.53	1.4644	1.0843	3.5614	148.54	3.7896	6.4588e-05	0.051554	0.00040553	2.4981	0.40031	408.14	421.94	1.6535	1.1392	4.4169	103.22	17.701	1.9585e-05	0.034414
367.23	3.5249	7.7097	0.12971	348.30	352.78	1.4651	1.0852	3.5919	147.86	3.8243	6.4386e-05	0.051539	0.00039869	2.5087	0.39861	408.06	421.83	1.6531	1.1401	4.4657	103.10	17.685	1.9631e-05	0.034557
367.32	3.5316	7.6962	0.12993	348.53	353.03	1.4657	1.0860	3.6231	147.18	3.8595	6.4184e-05	0.051525	0.00039189	2.5195	0.39691	407.98	421.72	1.6527	1.1409	4.5158	102.98	17.668	1.9678e-05	0.034702
367.42	3.5384	7.6826	0.13016	348.76	353.28	1.4664	1.0869	3.6552	146.50	3.8951	6.3981e-05	0.051512	0.00038512	2.5303	0.39521	407.90	421.61	1.6523	1.1418	4.5671	102.86	17.652	1.9726e-05	0.034849
367.51	3.5452	7.6689	0.13040	349.00	353.53	1.4670	1.0877	3.6882	145.82	3.9313	6.3777e-05	0.051500	0.00037839	2.5412	0.39351	407.82	421.49	1.6520	1.1427	4.6198	102.74	17.635	1.9774e-05	0.034999
367.61	3.5519	7.6551	0.13063	349.23	353.78	1.4677	1.0886	3.7220	145.14	3.9679	6.3573e-05	0.051489	0.00037169	2.5522	0.39182	407.74	421.38	1.6516	1.1436	4.6740	102.62	17.618	1.9823e-05	0.035150
367.70	3.5587	7.6413	0.13087	349.46	354.03	1.4683	1.0895	3.7568	144.45	4.0051	6.3368e-05	0.051479	0.00036503	2.5633	0.39012	407.65	421.26	1.6512	1.1445	4.7295	102.50	17.600	1.9872e-05	0.035304
367.79	3.5654	7.6273	0.13111	349.70	354.28	1.4690	1.0903	3.7925	143.77	4.0428	6.3163e-05	0.051471	0.00035841	2.5745	0.38842	407.57	421.14	1.6508	1.1454	4.7866	102.37	17.583	1.9922e-05	0.035460
367.89	3.5722	7.6132	0.13135	349.93	354.53	1.4697	1.0912	3.8293	143.09	4.0810	6.2957e-05	0.051464	0.00035182	2.5858	0.38672	407.48	421.02	1.6504	1.1463	4.8453	102.25	17.565	1.9972e-05	0.035619
367.98	3.5790	7.5991	0.13160	350.17	354.78	1.4703	1.0921	3.8671	142.40	4.1198	6.2750e-05	0.051458	0.00034527	2.5972	0.38502	407.39	420.90	1.6500	1.1472	4.9057	102.13	17.547	2.0023e-05	0.035779
368.07	3.5857	7.5848	0.13184	350.41	355.04	1.4710	1.0931	3.9061	141.72	4.1592	6.2542e-05	0.051453	0.00033876	2.6088	0.38332	407.30	420.77	1.6496	1.1482	4.9678	102.01	17.528	2.0075e-05	0.035943
368.17	3.5925	7.5704	0.13209	350.64	355.29	1.4717	1.0940	3.9461	141.04	4.1991	6.2334e-05	0.051450	0.00033228	2.6204	0.38162	407.21	420.65	1.6492	1.1491	5.0317	101.89	17.509	2.0127e-05	0.036109
368.26	3.5993	7.5560	0.13235	350.88	355.55	1.4723	1.0949	3.9874	140.35	4.2397	6.2124e-05	0.051448	0.00032584	2.6321	0.37992	407.12	420.52	1.6488	1.1500	5.0975	101.77	17.490	2.0180e-05	0.036277
368.35	3.6060	7.5414	0.13260	351.12	355.81	1.4730	1.0958	4.0300	139.67	4.2808	6.1914e-05	0.051448	0.00031944	2.6440	0.37822	407.02	420.39	1.6483	1.1510	5.1652	101.64	17.471	2.0234e-05	0.036448
368.45	3.6128	7.5267	0.13286	351.36	356.07	1.4737	1.0968	4.0739	138.98	4.3226	6.1703e-05	0.051449	0.00031308	2.6559	0.37652	406.92	420.26	1.6479	1.1519	5.2351	101.52	17.451	2.0288e-05	0.036623
368.54	3.6196	7.5118	0.13312	351.60	356.33	1.4744	1.0977	4.1192	138.30	4.3649	6.1492e-05	0.051452	0.00030675	2.6680	0.37481	406.83	420.12	1.6475	1.1529	5.3070	101.40	17.431	2.0343e-05	0.036800
368.63	3.6263	7.4969	0.13339	351.84	356.59	1.4751	1.0987	4.1659	137.61	4.4080	6.1279e-05	0.051456	0.00030046	2.6802	0.37311	406.73	419.99	1.6470	1.1538	5.3813	101.27	17.410	2.0399e-05	0.036980
368.72	3.6331	7.4818	0.13366	352.09	356.85	1.4757	1.0997	4.2141	136.92	4.4517	6.1066e-05	0.051462	0.00029421	2.6925	0.37140	406.63	419.85	1.6466	1.1548	5.4579	101.15	17.389	2.0455e-05	0.037163
368.82	3.6399	7.4667	0.13393	352.33	357.11	1.4764	1.1007	4.2640	136.23	4.4960	6.0851e-05	0.051470	0.00028799	2.7050	0.36969	406.52	419.71	1.6462	1.1557	5.5370	101.02	17.368	2.0512e-05	0.037350
368.91	3.6466	7.4513	0.13420	352.58	357.37	1.4771	1.1017	4.3155	135.55	4.5411	6.0635e-05	0.051480	0.00028182	2.7176	0.36797	406.42	419.57	1.6457	1.1567	5.6187	100.90	17.346	2.0570e-05	0.037540
369.00	3.6534	7.4359	0.13448	352.82	357.64	1.4778	1.1027	4.3689	134.86	4.5869	6.0419e-05	0.051491	0.00027568	2.7303	0.36626	406.31	419.42	1.6453	1.1577	5.7032	100.77	17.324	2.0629e-05	0.037733
369.09	3.6602	7.4203	0.13477	353.07	357.90	1.4785	1.1037	4.4241	134.17	4.6334	6.0201e-05	0.051505	0.00026958	2.7432	0.36454	406.20	419.28	1.6448	1.1587	5.7905	100.65	17.301	2.0689e-05	0.037930
369.18	3.6669	7.4046	0.13505	353.32	358.17	1.4792	1.1047	4.4812	133.48	4.6807	5.9982e-05	0.051520	0.00026352	2.7562	0.36282	406.09	419.13	1.6443	1.1597	5.8809	100.52	17.279	2.0749e-05	0.038131
369.27	3.6737	7.3887	0.13534	353.57	358.44	1.4799	1.1058	4.5404	132.79	4.7287	5.9762e-05	0.051538	0.00025750	2.7693	0.36110	405.98	418.98	1.6438	1.1607	5.9745	100.40	17.255	2.0810e-05	0.038336
369.37	3.6805	7.3726	0.13564	353.82	358.71	1.4806	1.1068	4.6018	132.09	4.7776	5.9541e-05	0.051558	0.00025151	2.7826	0.35937	405.86	418.83	1.6434	1.1617	6.0714	100.27	17.231	2.0872e-05	0.038545
369.46	3.6872	7.3565	0.13594	354.07	358.98	1.4813	1.1079	4.6656	131.40	4.8272	5.9319e-05	0.051580	0.00024557	2.7961	0.35764	405.75	418.67	1.6429	1.1627	6.1719	100.14	17.207	2.0936e-05	0.038758
369.55	3.6940	7.3401	0.13624	354.32	359.25	1.4820	1.1090	4.7317	130.71	4.8777	5.9095e-05	0.051605	0.00023967	2.8097	0.35591	405.63	418.51	1.6424	1.1638	6.2762	100.02	17.182	2.1000e-05	0.038976
369.64	3.7007	7.3236	0.13654	354.58	359.53	1.4828	1.1101	4.8005	130.02	4.9290	5.8870e-05	0.051632	0.00023381	2.8235	0.35417	405.51	418.35	1.6419	1.1648	6.3844	99.887	17.157	2.1065e-05	0.039198
369.73	3.7075	7.3069	0.13686	354.83	359.80	1.4835	1.1112	4.8720	129.32	4.9812	5.8644e-05	0.051662	0.00022798	2.8375	0.35243	405.38	418.19	1.6414	1.1658	6.4969	99.759	17.131	2.1131e-05	0.039425
369.82	3.7143	7.2901	0.13717	355.09	360.08	1.4842	1.1123	4.9464	128.63	5.0343	5.8416e-05	0.051694	0.00022220	2.8516	0.35068	405.26	418.02	1.6409	1.1669	6.6138	99.630	17.105	2.1198e-05	0.039657
369.91	3.7210	7.2730	0.13749	355.35	360.36	1.4849	1.1134	5.0239	127.93	5.0883	5.8187e-05	0.051729	0.00021646	2.8659	0.34893	405.13	417.85	1.6404	1.1680	6.7354	99.501	17.078	2.1267e-05	0.039894
370.00	3.7278	7.2558	0.13782	355.61	360.64	1.4857	1.1146	5.1047	127.23	5.1433	5.7956e-05	0.051767	0.00021076	2.8804	0.34717	405.00	417.68	1.6398	1.1690	6.8620	99.371	17.050	2.1336e-05	0.040137
370.09	3.7346	7.2384	0.13815	355.87	360.92	1.4864	1.1158	5.1890	126.53	5.1993	5.7724e-05	0.051809	0.00020510	2.8952	0.34540	404.86	417.51	1.6393	1.1701	6.9940	99.240	17.022	2.1407e-05	0.040385
370.18	3.7413	7.2207	0.13849	356.13	361.21	1.4872	1.1169	5.2771	125.84	5.2563	5.7490e-05	0.051853	0.00019949	2.9101	0.34364	404.73	417.33	1.6387	1.1712	7.1317	99.109	16.993	2.1479e-05	0.040640
370.27	3.7481	7.2029	0.13883	356.40	361.50	1.4879	1.1181	5.3691	125.14	5.3143	5.7254e-05	0.051902	0.00019391	2.9252	0.34186	404.59	417.15	1.6382	1.1723	7.2754	98.977	16.964	2.1552e-05	0.040901
370.36	3.7549	7.1848	0.13918	356.66	361.79	1.4887	1.1193	5.4654	124.44	5.3734	5.7016e-05	0.051953	0.00018838	2.9405	0.34008	404.45	416.96	1.6376	1.1734	7.4256	98.845	16.934	2.1626e-05	0.041169
370.45	3.7616	7.1665	0.13954	356.93	362.08	1.4894	1.1206	5.5663	123.73	5.4337	5.6777e-05	0.052009	0.00018289	2.9561	0.33828	404.30	416.77	1.6371	1.1745	7.5827	98.712	16.903	2.1702e-05	0.041443
370.54	3.7684	7.1480	0.13990	357.20	362.37	1.4902	1.1218	5.6721	123.03	5.4950	5.6535e-05	0.052068	0.00017745	2.9719	0.33649	404.15	416.58	1.6365	1.1757	7.7473	98.578	16.872	2.1779e-05	0.041725
370.63	3.7752	7.1293	0.14027	357.48	362.67	1.4910	1.1231	5.7832	122.33	5.5575	5.6291e-05	0.052132	0.00017204	2.9879	0.33468	404.00	416.38	1.6359	1.1768	7.9198	98.444	16.840	2.1858e-05	0.042015
370.72	3.7819	7.1102	0.14064	357.75	362.96	1.4917	1.1244	5.8999	121.62	5.6213	5.6046e-05	0.052200	0.00016669	3.0042	0.33286	403.85	416.18	1.6353	1.1780	8.1008	98.309	16.807	2.1939e-05	0.042313
370.80	3.7887	7.0910	0.14102	358.03	363.26	1.4925	1.1257	6.0228	120.92	5.6863	5.5798e-05	0.052273	0.00016137	3.0208	0.33104	403.69	415.98	1.6347	1.1791	8.2910	98.173	16.773	2.2021e-05	0.042620
370.89	3.7955	7.0714	0.14141	358.31	363.57	1.4933	1.1270	6.1522	120.21	5.7526	5.5547e-05	0.052350	0.00015611	3.0377	0.32920	403.53	415.77	1.6341	1.1803	8.4912	98.037	16.738	2.2104e-05	0.042936
370.98	3.8022	7.0515	0.14181	358.59	363.87	1.4941	1.1283	6.2889	119.50	5.8203	5.5294e-05	0.052433	0.00015089	3.0548	0.32735	403.36	415.56	1.6334	1.1815	8.7020	97.899	16.703	2.2190e-05	0.043262
371.07	3.8090	7.0314	0.14222	358.87	364.18	1.4949	1.1297	6.4333	118.79	5.8894	5.5039e-05	0.052522	0.00014571	3.0722	0.32550	403.19	415.34	1.6328	1.1827	8.9245	97.761	16.667	2.2277e-05	0.043598
371.16	3.8157	7.0109	0.14263	359.16	364.50	1.4957	1.1311	6.5861	118.08	5.9599	5.4780e-05	0.052617	0.00014058	3.0900	0.32363	403.02	415.12	1.6321	1.1839	9.1595	97.622	16.629	2.2366e-05	0.043945
371.24	3.8225	6.9901	0.14306	359.45	364.81	1.4966	1.1325	6.7481	117.36	6.0319	5.4519e-05	0.052718	0.00013550	3.1081	0.32174	402.84	414.89	1.6315	1.1852	9.4082	97.482	16.591	2.2458e-05	0.044304
371.33	3.8293	6.9690	0.14349	359.74	365.13	1.4974	1.1339	6.9202	116.65	6.1054	5.4255e-05	0.052826	0.00013047	3.1265	0.31984	402.66	414.66	1.6308	1.1864	9.6719	97.340	16.551	2.2551e-05	0.044676
371.42	3.8360	6.9474	0.14394	360.04	365.45	1.4982	1.1354	7.1033	115.93	6.1806	5.3987e-05	0.052941	0.00012549	3.1453	0.31793	402.47	414.42	1.6301	1.1877	9.9518	97.198	16.511	2.2647e-05	0.045061
371.51	3.8428	6.9255	0.14439	360.34	365.78	1.4991	1.1369	7.2984	115.21	6.2575	5.3717e-05	0.053064	0.00012055	3.1645	0.31601	402.28	414.18	1.6294	1.1890	10.250	97.055	16.469	2.2745e-05	0.045460
371.59	3.8496	6.9032	0.14486	360.64	366.11	1.5000	1.1384	7.5069	114.49	6.3361	5.3442e-05	0.053196	0.00011567	3.1841	0.31406	402.08	413.93	1.6286	1.1903	10.567	96.911	16.426	2.2846e-05	0.045876
371.68	3.8563	6.8805	0.14534	360.95	366.44	1.5008	1.1400	7.7301	113.77	6.4165	5.3164e-05	0.053338	0.00011083	3.2041	0.31210	401.88	413.67	1.6279	1.1916	10.906	96.765	16.382	2.2950e-05	0.046307
371.77	3.8631	6.8573	0.14583	361.26	366.78	1.5017	1.1416	7.9696	113.05	6.4989	5.2882e-05	0.053489	0.00010605	3.2246	0.31012	401.67	413.41	1.6271	1.1929	11.269	96.618	16.336	2.3056e-05	0.046758
371.86	3.8699	6.8336	0.14634	361.58	367.13	1.5026	1.1432	8.2272	112.32	6.5832	5.2596e-05	0.053651	0.00010133	3.2456	0.30811	401.45	413.14	1.6264	1.1943	11.659	96.470	16.289	2.3166e-05	0.047227
371.94	3.8766	6.8094	0.14686	361.90	367.48	1.5035	1.1448	8.5051	111.60	6.6696	5.2305e-05	0.053825	9.6652e-05	3.2670	0.30609	401.23	412.86	1.6256	1.1956	12.078	96.320	16.241	2.3278e-05	0.047718
372.03	3.8834	6.7847	0.14739	362.22	367.83	1.5045	1.1465	8.8057	110.86	6.7582	5.2009e-05	0.054013	9.2033e-05	3.2890	0.30404	401.00	412.57	1.6247	1.1970	12.530	96.168	16.191	2.3394e-05	0.048233
372.12	3.8902	6.7593	0.14794	362.55	368.19	1.5054	1.1482	9.1319	110.13	6.8491	5.1708e-05	0.054215	8.7471e-05	3.3116	0.30197	400.77	412.28	1.6239	1.1984	13.019	96.015	16.139	2.3514e-05	0.048773
372.20	3.8969	6.7334	0.14851	362.89	368.56	1.5064	1.1500	9.4870	109.40	6.9424	5.1401e-05	0.054433	8.2965e-05	3.3349	0.29986	400.52	411.98	1.6230	1.1999	13.550	95.860	16.085	2.3638e-05	0.049341
372.29	3.9037	6.7068	0.14910	363.23	368.93	1.5073	1.1518	9.8751	108.66	7.0383	5.1089e-05	0.054670	7.8518e-05	3.3588	0.29773	400.27	411.66	1.6221	1.2013	14.129	95.704	16.029	2.3766e-05	0.049940
372.37	3.9105	6.6794	0.14971	363.58	369.32	1.5083	1.1537	10.301	107.92	7.1368	5.0770e-05	0.054926	7.4131e-05	3.3834	0.29556	400.01	411.34	1.6212	1.2028	14.762	95.545	15.971	2.3899e-05	0.050573
372.46	3.9172	6.6513	0.15035	363.93	369.71	1.5094	1.1556	10.770	107.17	7.2381	5.0444e-05	0.055205	6.9805e-05	3.4087	0.29336	399.74	411.00	1.6202	1.2044	15.457	95.384	15.911	2.4036e-05	0.051244
372.54	3.9240	6.6224	0.15100	364.30	370.10	1.5104	1.1576	11.289	106.43	7.3425	5.0110e-05	0.055509	6.5542e-05	3.4350	0.29112	399.46	410.65	1.6193	1.2059	16.223	95.220	15.848	2.4179e-05	0.051958
372.63	3.9307	6.5925	0.15169	364.67	370.51	1.5115	1.1596	11.867	105.67	7.4501	4.9769e-05	0.055843	6.1344e-05	3.4621	0.28884	399.17	410.29	1.6182	1.2075	17.073	95.054	15.783	2.4328e-05	0.052721
372.71	3.9375	6.5616	0.15240	365.05	370.93	1.5126	1.1617	12.514	104.92	7.5611	4.9418e-05	0.056210	5.7213e-05	3.4903	0.28651	398.86	409.92	1.6172	1.2091	18.021	94.885	15.714	2.4484e-05	0.053537
372.80	3.9443	6.5296	0.15315	365.44	371.36	1.5137	1.1638	13.242	104.16	7.6758	4.9058e-05	0.056615	5.3151e-05	3.5195	0.28413	398.54	409.52	1.6161	1.2108	19.084	94.713	15.643	2.4647e-05	0.054416
372.88	3.9510	6.4964	0.15393	365.84	371.80	1.5149	1.1661	14.069	103.40	7.7944	4.8686e-05	0.057066	4.9161e-05	3.5500	0.28169	398.21	409.11	1.6149	1.2124	20.285	94.537	15.568	2.4818e-05	0.055366
372.97	3.9578	6.4619	0.15475	366.26	372.26	1.5160	1.1684	15.014	102.63	7.9173	4.8303e-05	0.057569	4.5244e-05	3.5818	0.27919	397.86	408.69	1.6137	1.2142	21.652	94.357	15.489	2.4997e-05	0.056399
373.05	3.9646	6.4258	0.15562	366.68	372.73	1.5173	1.1708	16.105	101.86	8.0449	4.7906e-05	0.058135	4.1405e-05	3.6152	0.27661	397.49	408.23	1.6125	1.2159	23.222	94.173	15.406	2.5187e-05	0.057528
373.14	3.9713	6.3881	0.15654	367.13	373.22	1.5186	1.1733	17.377	101.08	8.1776	4.7494e-05	0.058777	3.7645e-05	3.6503	0.27395	397.10	407.76	1.6111	1.2178	25.044	93.984	15.317	2.5388e-05	0.058773
373.22	3.9781	6.3484	0.15752	367.59	373.73	1.5199	1.1759	18.878	100.29	8.3159	4.7064e-05	0.059511	3.3970e-05	3.6873	0.27120	396.68	407.26	1.6097	1.2196	27.182	93.790	15.224	2.5603e-05	0.060156
373.30	3.9849	6.3065	0.15857	368.07	374.27	1.5213	1.1787	20.676	99.499	8.4606	4.6615e-05	0.060360	3.0383e-05	3.7265	0.26835	396.24	406.72	1.6083	1.2216	29.727	93.589	15.124	2.5832e-05	0.061706
373.39	3.9916	6.2620	0.15969	368.58	374.83	1.5228	1.1816	22.865	98.699	8.6123	4.6143e-05	0.061353	2.6890e-05	3.7684	0.26536	395.77	406.15	1.6067	1.2235	32.804	93.381	15.017	2.6079e-05	0.063466
373.47	3.9984	6.2144	0.16092	369.12	375.42	1.5244	1.1847	25.583	97.891	8.7722	4.5643e-05	0.062533	2.3496e-05	3.8134	0.26223	395.26	405.53	1.6050	1.2256	36.599	93.165	14.901	2.6347e-05	0.065489
373.56	4.0052	6.1632	0.16225	369.69	376.06	1.5260	1.1880	29.043	97.072	8.9415	4.5111e-05	0.063962	2.0208e-05	3.8621	0.25892	394.70	404.87	1.6031	1.2277	41.392	92.938	14.775	2.6640e-05	0.067857
373.64	4.0119	6.1075	0.16373	370.30	376.74	1.5278	1.1915	33.583	96.242	9.1220	4.4540e-05	0.065730	1.7036e-05	3.9154	0.25540	394.09	404.13	1.6011	1.2300	47.629	92.700	14.637	2.6965e-05	0.070685
373.72	4.0187	6.0462	0.16539	370.97	377.49	1.5298	1.1954	39.783	95.400	9.3162	4.3919e-05	0.067984	1.3989e-05	3.9745	0.25160	393.41	403.32	1.5989	1.2323	56.062	92.445	14.483	2.7330e-05	0.074159
373.80	4.0255	5.9774	0.16730	371.71	378.31	1.5320	1.1996	48.711	94.541	9.5277	4.3233e-05	0.070975	1.1082e-05	4.0413	0.24745	392.65	402.41	1.5964	1.2347	68.070	92.172	14.310	2.7749e-05	0.078586
373.89	4.0322	5.8986	0.16953	372.55	379.25	1.5345	1.2043	62.564	93.664	9.7622	4.2459e-05	0.075166	8.3333e-06	4.1186	0.24280	391.76	401.35	1.5936	1.2372	86.457	91.872	14.109	2.8241e-05	0.084525
373.97	4.0390	5.8048	0.17227	373.54	380.36	1.5374	1.2097	86.652	92.763	10.030	4.1556e-05	0.081551	5.7696e-06	4.2114	0.23745	390.69	400.09	1.5901	1.2399	117.90	91.536	13.869	2.8846e-05	0.093144
374.05	4.0458	5.6863	0.17586	374.77	381.74	1.5411	1.2162	137.58	91.832	10.350	4.0443e-05	0.092766	3.4335e-06	4.3303	0.23093	389.32	398.48	1.5858	1.2426	182.89	91.143	13.566	2.9639e-05	0.10745
374.13	4.0525	5.5171	0.18126	376.51	383.71	1.5463	0	0	0	10.779	3.8903e-05	0	1.4062e-06	4.5032	0.22207	387.35	396.17	1.5796	0	0	0	13.134	3.0834e-05	0
374.21	4.0591	5.0171	0.19932	381.71	389.64	1.5621	0	0	0	11.931	0	0	0.0000	5.0171	0.19932	381.71	389.64	1.5621	0	0	0	11.931	0	0
];
t=data(:,1);
p=data(:,2);
h=data(:,6);
s=data(:,7);

data2=[
   169.85	0.00038960	0.00027614	3621.4	321.11	334.94	1.9639	0.50296	0.58530	126.79	373.56	6.8294e-06	0.0030802	
201.67	0.0071544	0.0042960	232.78	337.77	354.10	1.8307	0.57712	0.66280	136.44	111.61	8.0791e-06	0.0056316	
211.12	0.013919	0.0080160	124.75	343.01	360.03	1.8057	0.59926	0.68705	138.91	87.874	8.4422e-06	0.0063922	
217.28	0.020684	0.011615	86.097	346.47	363.93	1.7920	0.61385	0.70345	140.39	76.739	8.6760e-06	0.0068884	
221.95	0.027449	0.015137	66.064	349.12	366.89	1.7828	0.62506	0.71632	141.43	69.842	8.8520e-06	0.0072655	
225.76	0.034214	0.018604	53.753	351.28	369.31	1.7760	0.63430	0.72712	142.23	64.987	8.9945e-06	0.0075736	
228.99	0.040979	0.022028	45.397	353.13	371.37	1.7706	0.64225	0.73654	142.87	61.306	9.1151e-06	0.0078360	
231.82	0.047743	0.025418	39.342	354.75	373.16	1.7663	0.64926	0.74498	143.39	58.375	9.2200e-06	0.0080658	
234.35	0.054508	0.028780	34.747	356.20	374.76	1.7626	0.65558	0.75267	143.84	55.960	9.3132e-06	0.0082710	
236.63	0.061273	0.032117	31.136	357.51	376.21	1.7595	0.66135	0.75977	144.21	53.920	9.3972e-06	0.0084570	
238.72	0.068038	0.035434	28.221	358.71	377.53	1.7568	0.66667	0.76640	144.54	52.162	9.4739e-06	0.0086275	
240.65	0.074803	0.038734	25.817	359.82	378.74	1.7544	0.67162	0.77262	144.83	50.623	9.5446e-06	0.0087853	
242.44	0.081567	0.042017	23.800	360.85	379.87	1.7523	0.67626	0.77851	145.08	49.260	9.6102e-06	0.0089323	
244.12	0.088332	0.045287	22.081	361.81	380.93	1.7504	0.68063	0.78411	145.30	48.038	9.6714e-06	0.0090701	
245.70	0.095097	0.048544	20.600	362.72	381.92	1.7486	0.68477	0.78946	145.50	46.935	9.7290e-06	0.0092001	
247.19	0.10186	0.051791	19.309	363.57	382.85	1.7471	0.68870	0.79459	145.68	45.931	9.7833e-06	0.0093231	
248.61	0.10863	0.055027	18.173	364.39	383.74	1.7456	0.69246	0.79952	145.84	45.011	9.8348e-06	0.0094400	
249.96	0.11539	0.058254	17.166	365.16	384.57	1.7443	0.69605	0.80428	145.98	44.164	9.8837e-06	0.0095515	
251.24	0.12216	0.061474	16.267	365.90	385.37	1.7431	0.69950	0.80888	146.11	43.379	9.9304e-06	0.0096582	
252.48	0.12892	0.064686	15.459	366.60	386.14	1.7419	0.70282	0.81334	146.22	42.650	9.9751e-06	0.0097605	
253.66	0.13569	0.067891	14.729	367.28	386.87	1.7409	0.70602	0.81767	146.32	41.969	1.0018e-05	0.0098589	
254.80	0.14245	0.071091	14.067	367.93	387.57	1.7399	0.70911	0.82188	146.42	41.332	1.0059e-05	0.0099536	
255.89	0.14922	0.074285	13.462	368.56	388.24	1.7389	0.71210	0.82599	146.50	40.733	1.0099e-05	0.010045	
256.95	0.15598	0.077473	12.908	369.16	388.89	1.7381	0.71500	0.82999	146.57	40.169	1.0137e-05	0.010133	
257.97	0.16275	0.080658	12.398	369.74	389.52	1.7372	0.71781	0.83390	146.64	39.635	1.0174e-05	0.010219	
258.96	0.16951	0.083838	11.928	370.31	390.12	1.7365	0.72054	0.83773	146.70	39.131	1.0210e-05	0.010302	
259.92	0.17627	0.087014	11.492	370.85	390.71	1.7357	0.72320	0.84147	146.75	38.652	1.0245e-05	0.010383	
260.85	0.18304	0.090187	11.088	371.38	391.27	1.7350	0.72579	0.84514	146.79	38.196	1.0278e-05	0.010461	
261.76	0.18980	0.093357	10.712	371.90	391.82	1.7343	0.72832	0.84874	146.83	37.762	1.0311e-05	0.010538	
262.64	0.19657	0.096524	10.360	372.40	392.35	1.7337	0.73078	0.85227	146.87	37.348	1.0343e-05	0.010612	
263.49	0.20333	0.099689	10.031	372.88	392.87	1.7331	0.73318	0.85575	146.90	36.953	1.0374e-05	0.010685	
264.33	0.21010	0.10285	9.7228	373.35	393.37	1.7325	0.73554	0.85916	146.92	36.574	1.0404e-05	0.010755	
265.14	0.21686	0.10601	9.4329	373.81	393.86	1.7320	0.73784	0.86252	146.94	36.211	1.0434e-05	0.010825	
265.94	0.22363	0.10917	9.1600	374.26	394.34	1.7315	0.74009	0.86583	146.96	35.863	1.0463e-05	0.010892	
266.71	0.23039	0.11233	8.9026	374.70	394.80	1.7309	0.74229	0.86909	146.97	35.528	1.0491e-05	0.010959	
267.47	0.23716	0.11548	8.6593	375.13	395.25	1.7305	0.74445	0.87230	146.98	35.206	1.0519e-05	0.011024	
268.21	0.24392	0.11864	8.4291	375.55	395.70	1.7300	0.74658	0.87547	146.99	34.896	1.0546e-05	0.011087	
268.94	0.25069	0.12179	8.2108	375.95	396.13	1.7295	0.74866	0.87859	146.99	34.598	1.0572e-05	0.011150	
269.65	0.25745	0.12494	8.0037	376.35	396.55	1.7291	0.75070	0.88168	146.99	34.309	1.0598e-05	0.011211	
270.35	0.26422	0.12809	7.8067	376.74	396.96	1.7287	0.75271	0.88473	146.98	34.031	1.0623e-05	0.011271	
271.03	0.27098	0.13125	7.6193	377.13	397.36	1.7283	0.75468	0.88774	146.98	33.762	1.0648e-05	0.011330	
271.70	0.27775	0.13440	7.4407	377.50	397.76	1.7279	0.75662	0.89072	146.97	33.502	1.0673e-05	0.011388	
272.36	0.28451	0.13755	7.2702	377.87	398.14	1.7275	0.75853	0.89366	146.96	33.250	1.0697e-05	0.011445	
273.01	0.29128	0.14070	7.1074	378.23	398.52	1.7272	0.76040	0.89658	146.94	33.006	1.0721e-05	0.011502	
273.64	0.29804	0.14385	6.9518	378.58	398.89	1.7268	0.76225	0.89946	146.93	32.769	1.0744e-05	0.011557	
274.26	0.30481	0.14700	6.8028	378.93	399.25	1.7265	0.76407	0.90232	146.91	32.540	1.0767e-05	0.011611	
274.88	0.31157	0.15015	6.6600	379.27	399.61	1.7261	0.76586	0.90514	146.89	32.317	1.0790e-05	0.011665	
275.48	0.31834	0.15330	6.5231	379.61	399.96	1.7258	0.76763	0.90794	146.87	32.100	1.0812e-05	0.011718	
276.07	0.32510	0.15645	6.3918	379.93	400.30	1.7255	0.76937	0.91072	146.84	31.890	1.0834e-05	0.011770	
276.66	0.33187	0.15960	6.2655	380.26	400.64	1.7252	0.77109	0.91347	146.82	31.686	1.0856e-05	0.011822	
277.23	0.33863	0.16276	6.1442	380.57	400.97	1.7249	0.77278	0.91620	146.79	31.487	1.0877e-05	0.011872	
277.80	0.34540	0.16591	6.0274	380.89	401.29	1.7246	0.77446	0.91890	146.76	31.293	1.0898e-05	0.011922	
278.36	0.35216	0.16906	5.9149	381.19	401.61	1.7244	0.77611	0.92158	146.73	31.105	1.0919e-05	0.011972	
278.90	0.35892	0.17222	5.8066	381.50	401.92	1.7241	0.77773	0.92425	146.70	30.921	1.0939e-05	0.012021	
279.45	0.36569	0.17537	5.7021	381.79	402.23	1.7238	0.77934	0.92689	146.66	30.742	1.0959e-05	0.012069	
279.98	0.37245	0.17853	5.6013	382.09	402.53	1.7236	0.78093	0.92951	146.63	30.567	1.0979e-05	0.012117	
280.51	0.37922	0.18169	5.5039	382.38	402.83	1.7233	0.78250	0.93212	146.59	30.397	1.0999e-05	0.012164	
281.03	0.38598	0.18485	5.4099	382.66	403.13	1.7231	0.78405	0.93470	146.55	30.231	1.1019e-05	0.012210	
281.54	0.39275	0.18801	5.3189	382.94	403.41	1.7228	0.78558	0.93727	146.52	30.068	1.1038e-05	0.012256	
282.04	0.39951	0.19117	5.2309	383.22	403.70	1.7226	0.78710	0.93982	146.48	29.910	1.1057e-05	0.012302	
282.54	0.40628	0.19433	5.1458	383.49	403.98	1.7224	0.78860	0.94236	146.43	29.755	1.1076e-05	0.012347	
283.04	0.41304	0.19750	5.0633	383.76	404.25	1.7222	0.79008	0.94488	146.39	29.603	1.1095e-05	0.012392	
283.52	0.41981	0.20066	4.9835	384.02	404.53	1.7219	0.79155	0.94739	146.35	29.455	1.1113e-05	0.012436	
284.00	0.42657	0.20383	4.9060	384.28	404.79	1.7217	0.79300	0.94988	146.30	29.311	1.1131e-05	0.012480	
284.48	0.43334	0.20700	4.8309	384.54	405.06	1.7215	0.79443	0.95236	146.26	29.169	1.1150e-05	0.012523	
284.95	0.44010	0.21017	4.7580	384.80	405.32	1.7213	0.79585	0.95482	146.21	29.030	1.1167e-05	0.012566	
285.41	0.44687	0.21334	4.6873	385.05	405.57	1.7211	0.79726	0.95727	146.16	28.894	1.1185e-05	0.012609	
285.87	0.45363	0.21652	4.6185	385.29	405.83	1.7209	0.79865	0.95971	146.12	28.762	1.1203e-05	0.012651	
286.33	0.46040	0.21970	4.5518	385.54	406.08	1.7207	0.80003	0.96214	146.07	28.631	1.1220e-05	0.012693	
286.77	0.46716	0.22287	4.4868	385.78	406.32	1.7206	0.80140	0.96455	146.02	28.504	1.1238e-05	0.012734	
287.22	0.47393	0.22605	4.4237	386.02	406.57	1.7204	0.80275	0.96696	145.97	28.379	1.1255e-05	0.012775	
287.66	0.48069	0.22924	4.3623	386.25	406.80	1.7202	0.80409	0.96935	145.91	28.256	1.1272e-05	0.012816	
288.09	0.48746	0.23242	4.3025	386.49	407.04	1.7200	0.80542	0.97173	145.86	28.136	1.1289e-05	0.012856	
288.52	0.49422	0.23561	4.2444	386.72	407.27	1.7198	0.80673	0.97411	145.81	28.018	1.1305e-05	0.012896	
288.95	0.50099	0.23880	4.1877	386.94	407.50	1.7197	0.80804	0.97647	145.75	27.903	1.1322e-05	0.012936	
289.37	0.50775	0.24199	4.1325	387.17	407.73	1.7195	0.80933	0.97882	145.70	27.789	1.1338e-05	0.012975	
289.78	0.51452	0.24518	4.0786	387.39	407.96	1.7193	0.81061	0.98117	145.64	27.678	1.1355e-05	0.013014	
290.20	0.52128	0.24838	4.0262	387.61	408.18	1.7192	0.81188	0.98350	145.59	27.569	1.1371e-05	0.013053	
290.60	0.52805	0.25157	3.9750	387.83	408.40	1.7190	0.81314	0.98583	145.53	27.461	1.1387e-05	0.013092	
291.01	0.53481	0.25477	3.9251	388.04	408.61	1.7189	0.81439	0.98815	145.47	27.356	1.1403e-05	0.013130	
291.41	0.54157	0.25798	3.8763	388.25	408.83	1.7187	0.81563	0.99046	145.42	27.252	1.1419e-05	0.013168	
291.81	0.54834	0.26118	3.8288	388.46	409.04	1.7185	0.81686	0.99276	145.36	27.151	1.1435e-05	0.013206	
292.20	0.55510	0.26439	3.7823	388.67	409.25	1.7184	0.81808	0.99506	145.30	27.051	1.1450e-05	0.013244	
292.59	0.56187	0.26760	3.7370	388.87	409.45	1.7183	0.81929	0.99734	145.24	26.953	1.1466e-05	0.013281	
292.98	0.56863	0.27081	3.6926	389.08	409.66	1.7181	0.82049	0.99963	145.18	26.856	1.1481e-05	0.013318	
293.36	0.57540	0.27403	3.6493	389.28	409.86	1.7180	0.82168	1.0019	145.12	26.761	1.1497e-05	0.013355	
293.74	0.58216	0.27724	3.6069	389.48	410.06	1.7178	0.82286	1.0042	145.05	26.668	1.1512e-05	0.013391	
294.11	0.58893	0.28046	3.5655	389.67	410.25	1.7177	0.82403	1.0064	144.99	26.576	1.1527e-05	0.013428	
294.49	0.59569	0.28369	3.5250	389.87	410.45	1.7175	0.82520	1.0087	144.93	26.486	1.1542e-05	0.013464	
294.86	0.60246	0.28691	3.4854	390.06	410.64	1.7174	0.82635	1.0109	144.87	26.397	1.1557e-05	0.013500	
295.22	0.60922	0.29014	3.4466	390.25	410.83	1.7173	0.82750	1.0132	144.80	26.310	1.1572e-05	0.013535	
295.59	0.61599	0.29337	3.4086	390.44	411.02	1.7171	0.82864	1.0154	144.74	26.224	1.1587e-05	0.013571	
295.95	0.62275	0.29661	3.3715	390.63	411.21	1.7170	0.82977	1.0177	144.67	26.139	1.1602e-05	0.013606	
296.30	0.62952	0.29984	3.3351	390.81	411.39	1.7169	0.83090	1.0199	144.61	26.056	1.1616e-05	0.013641	
296.66	0.63628	0.30308	3.2994	391.00	411.57	1.7168	0.83202	1.0221	144.54	25.974	1.1631e-05	0.013676	
297.01	0.64305	0.30633	3.2645	391.18	411.75	1.7166	0.83312	1.0243	144.48	25.893	1.1645e-05	0.013711	
297.36	0.64981	0.30957	3.2302	391.36	411.93	1.7165	0.83423	1.0266	144.41	25.814	1.1660e-05	0.013746	
297.70	0.65658	0.31282	3.1967	391.54	412.11	1.7164	0.83532	1.0288	144.34	25.735	1.1674e-05	0.013780	
298.05	0.66334	0.31608	3.1638	391.71	412.28	1.7163	0.83641	1.0310	144.28	25.658	1.1689e-05	0.013814	
298.39	0.67011	0.31933	3.1315	391.89	412.45	1.7161	0.83749	1.0332	144.21	25.582	1.1703e-05	0.013849	
298.73	0.67687	0.32259	3.0999	392.06	412.63	1.7160	0.83856	1.0354	144.14	25.507	1.1717e-05	0.013882	
299.06	0.68364	0.32585	3.0689	392.23	412.79	1.7159	0.83963	1.0376	144.07	25.433	1.1731e-05	0.013916	
299.39	0.69040	0.32912	3.0384	392.40	412.96	1.7158	0.84069	1.0398	144.00	25.361	1.1745e-05	0.013950	
299.73	0.69717	0.33238	3.0086	392.57	413.13	1.7157	0.84174	1.0420	143.93	25.289	1.1759e-05	0.013983	
300.05	0.70393	0.33566	2.9792	392.74	413.29	1.7156	0.84279	1.0442	143.86	25.218	1.1773e-05	0.014017	
300.38	0.71070	0.33893	2.9505	392.90	413.46	1.7154	0.84383	1.0463	143.79	25.149	1.1787e-05	0.014050	
300.70	0.71746	0.34221	2.9222	393.07	413.62	1.7153	0.84487	1.0485	143.72	25.080	1.1801e-05	0.014083	
301.02	0.72423	0.34549	2.8944	393.23	413.78	1.7152	0.84589	1.0507	143.65	25.012	1.1815e-05	0.014116	
301.34	0.73099	0.34877	2.8672	393.39	413.93	1.7151	0.84692	1.0529	143.58	24.946	1.1828e-05	0.014149	
301.66	0.73775	0.35206	2.8404	393.55	414.09	1.7150	0.84793	1.0551	143.51	24.880	1.1842e-05	0.014181	
301.97	0.74452	0.35535	2.8141	393.71	414.24	1.7149	0.84895	1.0572	143.44	24.815	1.1855e-05	0.014214	
302.29	0.75128	0.35865	2.7882	393.87	414.40	1.7148	0.84995	1.0594	143.37	24.751	1.1869e-05	0.014246	
302.60	0.75805	0.36195	2.7628	394.02	414.55	1.7147	0.85095	1.0616	143.30	24.687	1.1883e-05	0.014278	
302.91	0.76481	0.36525	2.7379	394.18	414.70	1.7146	0.85195	1.0638	143.22	24.625	1.1896e-05	0.014311	
303.21	0.77158	0.36855	2.7133	394.33	414.85	1.7145	0.85294	1.0659	143.15	24.564	1.1909e-05	0.014343	
303.52	0.77834	0.37186	2.6892	394.48	415.00	1.7144	0.85392	1.0681	143.08	24.503	1.1923e-05	0.014375	
303.82	0.78511	0.37517	2.6654	394.63	415.14	1.7143	0.85490	1.0703	143.00	24.443	1.1936e-05	0.014406	
304.12	0.79187	0.37849	2.6421	394.78	415.29	1.7142	0.85587	1.0724	142.93	24.384	1.1949e-05	0.014438	
304.42	0.79864	0.38181	2.6191	394.93	415.43	1.7141	0.85684	1.0746	142.86	24.325	1.1963e-05	0.014470	
304.71	0.80540	0.38513	2.5965	395.08	415.57	1.7140	0.85780	1.0768	142.78	24.268	1.1976e-05	0.014501	
305.01	0.81217	0.38846	2.5743	395.22	415.71	1.7139	0.85876	1.0789	142.71	24.211	1.1989e-05	0.014533	
305.30	0.81893	0.39179	2.5524	395.37	415.85	1.7138	0.85972	1.0811	142.63	24.155	1.2002e-05	0.014564	
305.59	0.82570	0.39513	2.5308	395.51	415.99	1.7137	0.86067	1.0832	142.56	24.099	1.2015e-05	0.014595	
305.88	0.83246	0.39846	2.5096	395.65	416.13	1.7136	0.86161	1.0854	142.48	24.044	1.2028e-05	0.014626	
306.17	0.83923	0.40181	2.4888	395.79	416.26	1.7135	0.86255	1.0876	142.40	23.990	1.2041e-05	0.014657	
306.45	0.84599	0.40515	2.4682	395.93	416.40	1.7134	0.86349	1.0897	142.33	23.937	1.2054e-05	0.014688	
306.74	0.85276	0.40850	2.4480	396.07	416.53	1.7133	0.86442	1.0919	142.25	23.884	1.2067e-05	0.014719	
307.02	0.85952	0.41186	2.4280	396.21	416.66	1.7132	0.86534	1.0940	142.18	23.832	1.2080e-05	0.014750	
307.30	0.86629	0.41521	2.4084	396.35	416.80	1.7131	0.86626	1.0962	142.10	23.780	1.2093e-05	0.014781	
307.58	0.87305	0.41858	2.3891	396.48	416.93	1.7130	0.86718	1.0984	142.02	23.729	1.2106e-05	0.014811	
307.86	0.87982	0.42194	2.3700	396.62	417.05	1.7129	0.86810	1.1005	141.94	23.679	1.2119e-05	0.014842	
308.13	0.88658	0.42531	2.3512	396.75	417.18	1.7128	0.86901	1.1027	141.87	23.629	1.2132e-05	0.014872	
308.41	0.89335	0.42868	2.3327	396.88	417.31	1.7127	0.86991	1.1049	141.79	23.580	1.2144e-05	0.014903	
308.68	0.90011	0.43206	2.3145	397.01	417.43	1.7126	0.87081	1.1070	141.71	23.532	1.2157e-05	0.014933	
308.95	0.90688	0.43544	2.2965	397.15	417.56	1.7125	0.87171	1.1092	141.63	23.484	1.2170e-05	0.014963	
309.22	0.91364	0.43883	2.2788	397.27	417.68	1.7124	0.87260	1.1114	141.56	23.436	1.2183e-05	0.014994	
309.49	0.92040	0.44222	2.2613	397.40	417.80	1.7123	0.87349	1.1135	141.48	23.390	1.2195e-05	0.015024	
309.76	0.92717	0.44561	2.2441	397.53	417.92	1.7122	0.87438	1.1157	141.40	23.343	1.2208e-05	0.015054	
310.02	0.93393	0.44901	2.2271	397.66	418.04	1.7121	0.87526	1.1179	141.32	23.298	1.2220e-05	0.015084	
310.28	0.94070	0.45241	2.2104	397.78	418.16	1.7121	0.87614	1.1200	141.24	23.252	1.2233e-05	0.015114	
310.55	0.94746	0.45582	2.1939	397.91	418.28	1.7120	0.87701	1.1222	141.16	23.208	1.2246e-05	0.015144	
310.81	0.95423	0.45923	2.1776	398.03	418.40	1.7119	0.87788	1.1244	141.08	23.163	1.2258e-05	0.015174	
311.07	0.96099	0.46264	2.1615	398.15	418.51	1.7118	0.87875	1.1266	141.00	23.120	1.2271e-05	0.015203	
311.33	0.96776	0.46606	2.1456	398.28	418.63	1.7117	0.87961	1.1287	140.92	23.076	1.2283e-05	0.015233	
311.58	0.97452	0.46949	2.1300	398.40	418.74	1.7116	0.88048	1.1309	140.84	23.034	1.2296e-05	0.015263	
311.84	0.98129	0.47291	2.1145	398.52	418.85	1.7115	0.88133	1.1331	140.76	22.991	1.2308e-05	0.015292	
312.09	0.98805	0.47635	2.0993	398.64	418.97	1.7114	0.88219	1.1353	140.68	22.950	1.2321e-05	0.015322	
312.34	0.99482	0.47978	2.0843	398.76	419.08	1.7113	0.88304	1.1375	140.60	22.908	1.2333e-05	0.015351	
312.60	1.0016	0.48322	2.0694	398.87	419.19	1.7113	0.88388	1.1396	140.52	22.867	1.2345e-05	0.015381	
312.85	1.0083	0.48667	2.0548	398.99	419.30	1.7112	0.88473	1.1418	140.44	22.827	1.2358e-05	0.015410	
313.10	1.0151	0.49012	2.0403	399.11	419.40	1.7111	0.88557	1.1440	140.35	22.787	1.2370e-05	0.015440	
313.34	1.0219	0.49357	2.0260	399.22	419.51	1.7110	0.88641	1.1462	140.27	22.747	1.2383e-05	0.015469	
313.59	1.0286	0.49703	2.0119	399.34	419.62	1.7109	0.88724	1.1484	140.19	22.708	1.2395e-05	0.015499	
313.84	1.0354	0.50050	1.9980	399.45	419.72	1.7108	0.88807	1.1506	140.11	22.669	1.2407e-05	0.015528	
314.08	1.0422	0.50396	1.9843	399.56	419.83	1.7107	0.88890	1.1528	140.03	22.631	1.2420e-05	0.015557	
314.32	1.0489	0.50744	1.9707	399.67	419.93	1.7106	0.88972	1.1550	139.95	22.593	1.2432e-05	0.015586	
314.56	1.0557	0.51091	1.9573	399.78	420.04	1.7106	0.89055	1.1572	139.86	22.556	1.2444e-05	0.015616	
314.80	1.0625	0.51440	1.9440	399.89	420.14	1.7105	0.89137	1.1595	139.78	22.518	1.2457e-05	0.015645	
315.04	1.0692	0.51788	1.9309	400.00	420.24	1.7104	0.89218	1.1617	139.70	22.482	1.2469e-05	0.015674	
315.28	1.0760	0.52137	1.9180	400.11	420.34	1.7103	0.89300	1.1639	139.61	22.445	1.2481e-05	0.015703	
315.52	1.0828	0.52487	1.9052	400.22	420.44	1.7102	0.89381	1.1661	139.53	22.409	1.2493e-05	0.015732	
315.76	1.0895	0.52837	1.8926	400.33	420.54	1.7101	0.89462	1.1683	139.45	22.374	1.2506e-05	0.015761	
315.99	1.0963	0.53188	1.8801	400.43	420.64	1.7100	0.89542	1.1706	139.36	22.338	1.2518e-05	0.015790	
316.22	1.1031	0.53539	1.8678	400.54	420.73	1.7099	0.89622	1.1728	139.28	22.304	1.2530e-05	0.015819	
316.46	1.1098	0.53890	1.8556	400.65	420.83	1.7099	0.89702	1.1750	139.20	22.269	1.2542e-05	0.015848	
316.69	1.1166	0.54242	1.8436	400.75	420.93	1.7098	0.89782	1.1773	139.11	22.235	1.2555e-05	0.015877	
316.92	1.1233	0.54595	1.8317	400.85	421.02	1.7097	0.89862	1.1795	139.03	22.201	1.2567e-05	0.015906	
317.15	1.1301	0.54948	1.8199	400.96	421.11	1.7096	0.89941	1.1818	138.95	22.168	1.2579e-05	0.015935	
317.38	1.1369	0.55301	1.8083	401.06	421.21	1.7095	0.90020	1.1840	138.86	22.134	1.2591e-05	0.015964	
317.61	1.1436	0.55655	1.7968	401.16	421.30	1.7094	0.90098	1.1863	138.78	22.102	1.2603e-05	0.015993	
317.83	1.1504	0.56009	1.7854	401.26	421.39	1.7094	0.90177	1.1885	138.69	22.069	1.2616e-05	0.016021	
318.06	1.1572	0.56364	1.7742	401.36	421.48	1.7093	0.90255	1.1908	138.61	22.037	1.2628e-05	0.016050	
318.28	1.1639	0.56720	1.7631	401.46	421.57	1.7092	0.90333	1.1931	138.52	22.005	1.2640e-05	0.016079	
318.51	1.1707	0.57076	1.7521	401.56	421.66	1.7091	0.90411	1.1953	138.44	21.974	1.2652e-05	0.016108	
318.73	1.1775	0.57432	1.7412	401.66	421.75	1.7090	0.90488	1.1976	138.35	21.942	1.2664e-05	0.016137	
318.95	1.1842	0.57789	1.7304	401.75	421.84	1.7089	0.90566	1.1999	138.27	21.911	1.2676e-05	0.016166	
319.17	1.1910	0.58147	1.7198	401.85	421.93	1.7088	0.90643	1.2022	138.18	21.881	1.2689e-05	0.016194	
319.39	1.1978	0.58505	1.7093	401.95	422.01	1.7088	0.90720	1.2045	138.09	21.851	1.2701e-05	0.016223	
319.61	1.2045	0.58863	1.6989	402.04	422.10	1.7087	0.90796	1.2068	138.01	21.821	1.2713e-05	0.016252	
319.83	1.2113	0.59222	1.6886	402.14	422.18	1.7086	0.90872	1.2091	137.92	21.791	1.2725e-05	0.016281	
320.05	1.2181	0.59582	1.6784	402.23	422.27	1.7085	0.90949	1.2114	137.84	21.761	1.2737e-05	0.016309	
320.26	1.2248	0.59942	1.6683	402.33	422.35	1.7084	0.91025	1.2137	137.75	21.732	1.2749e-05	0.016338	
320.48	1.2316	0.60303	1.6583	402.42	422.44	1.7083	0.91100	1.2160	137.66	21.703	1.2762e-05	0.016367	
320.69	1.2384	0.60664	1.6484	402.51	422.52	1.7082	0.91176	1.2183	137.58	21.675	1.2774e-05	0.016396	
320.91	1.2451	0.61025	1.6387	402.60	422.60	1.7082	0.91251	1.2206	137.49	21.646	1.2786e-05	0.016425	
321.12	1.2519	0.61388	1.6290	402.69	422.68	1.7081	0.91326	1.2230	137.40	21.618	1.2798e-05	0.016453	
321.33	1.2586	0.61750	1.6194	402.78	422.76	1.7080	0.91401	1.2253	137.32	21.591	1.2810e-05	0.016482	
321.54	1.2654	0.62114	1.6099	402.87	422.84	1.7079	0.91476	1.2277	137.23	21.563	1.2822e-05	0.016511	
321.75	1.2722	0.62478	1.6006	402.96	422.92	1.7078	0.91550	1.2300	137.14	21.536	1.2835e-05	0.016540	
321.96	1.2789	0.62842	1.5913	403.05	423.00	1.7077	0.91625	1.2324	137.06	21.509	1.2847e-05	0.016568	
322.17	1.2857	0.63207	1.5821	403.14	423.08	1.7077	0.91699	1.2347	136.97	21.482	1.2859e-05	0.016597	
322.38	1.2925	0.63573	1.5730	403.23	423.15	1.7076	0.91772	1.2371	136.88	21.455	1.2871e-05	0.016626	
322.58	1.2992	0.63939	1.5640	403.31	423.23	1.7075	0.91846	1.2395	136.79	21.429	1.2883e-05	0.016655	
322.79	1.3060	0.64305	1.5551	403.40	423.31	1.7074	0.91920	1.2419	136.71	21.403	1.2895e-05	0.016684	
322.99	1.3128	0.64672	1.5463	403.49	423.38	1.7073	0.91993	1.2442	136.62	21.377	1.2908e-05	0.016712	
323.20	1.3195	0.65040	1.5375	403.57	423.45	1.7072	0.92066	1.2466	136.53	21.352	1.2920e-05	0.016741	
323.40	1.3263	0.65408	1.5289	403.66	423.53	1.7071	0.92139	1.2490	136.44	21.327	1.2932e-05	0.016770	
323.61	1.3331	0.65777	1.5203	403.74	423.60	1.7071	0.92212	1.2514	136.35	21.301	1.2944e-05	0.016799	
323.81	1.3398	0.66147	1.5118	403.82	423.67	1.7070	0.92285	1.2539	136.27	21.277	1.2956e-05	0.016828	
324.01	1.3466	0.66517	1.5034	403.91	423.75	1.7069	0.92357	1.2563	136.18	21.252	1.2969e-05	0.016857	
324.21	1.3534	0.66887	1.4950	403.99	423.82	1.7068	0.92429	1.2587	136.09	21.228	1.2981e-05	0.016886	
324.41	1.3601	0.67259	1.4868	404.07	423.89	1.7067	0.92501	1.2611	136.00	21.203	1.2993e-05	0.016914	
324.61	1.3669	0.67630	1.4786	404.15	423.96	1.7066	0.92573	1.2636	135.91	21.179	1.3005e-05	0.016943	
324.81	1.3736	0.68003	1.4705	404.23	424.03	1.7065	0.92645	1.2660	135.82	21.156	1.3017e-05	0.016972	
325.00	1.3804	0.68376	1.4625	404.31	424.10	1.7065	0.92717	1.2685	135.73	21.132	1.3030e-05	0.017001	
325.20	1.3872	0.68749	1.4546	404.39	424.17	1.7064	0.92788	1.2709	135.64	21.109	1.3042e-05	0.017030	
325.40	1.3939	0.69123	1.4467	404.47	424.24	1.7063	0.92859	1.2734	135.55	21.086	1.3054e-05	0.017059	
325.59	1.4007	0.69498	1.4389	404.55	424.30	1.7062	0.92931	1.2759	135.46	21.063	1.3066e-05	0.017088	
325.79	1.4075	0.69874	1.4312	404.63	424.37	1.7061	0.93001	1.2784	135.38	21.040	1.3079e-05	0.017117	
325.98	1.4142	0.70250	1.4235	404.71	424.44	1.7060	0.93072	1.2809	135.29	21.018	1.3091e-05	0.017146	
326.17	1.4210	0.70626	1.4159	404.78	424.50	1.7059	0.93143	1.2834	135.20	20.995	1.3103e-05	0.017176	
326.37	1.4278	0.71003	1.4084	404.86	424.57	1.7058	0.93213	1.2859	135.11	20.973	1.3116e-05	0.017205	
326.56	1.4345	0.71381	1.4009	404.93	424.63	1.7058	0.93284	1.2884	135.02	20.951	1.3128e-05	0.017234	
326.75	1.4413	0.71759	1.3935	405.01	424.70	1.7057	0.93354	1.2909	134.93	20.930	1.3140e-05	0.017263	
326.94	1.4481	0.72139	1.3862	405.08	424.76	1.7056	0.93424	1.2934	134.84	20.908	1.3152e-05	0.017292	
327.13	1.4548	0.72518	1.3790	405.16	424.82	1.7055	0.93494	1.2960	134.75	20.887	1.3165e-05	0.017322	
327.32	1.4616	0.72898	1.3718	405.23	424.88	1.7054	0.93564	1.2985	134.66	20.866	1.3177e-05	0.017351	
327.51	1.4684	0.73279	1.3646	405.31	424.95	1.7053	0.93633	1.3011	134.56	20.845	1.3190e-05	0.017380	
327.70	1.4751	0.73661	1.3576	405.38	425.01	1.7052	0.93703	1.3037	134.47	20.824	1.3202e-05	0.017409	
327.88	1.4819	0.74043	1.3506	405.45	425.07	1.7051	0.93772	1.3062	134.38	20.803	1.3214e-05	0.017439	
328.07	1.4886	0.74426	1.3436	405.52	425.13	1.7051	0.93841	1.3088	134.29	20.783	1.3227e-05	0.017468	
328.26	1.4954	0.74809	1.3367	405.60	425.19	1.7050	0.93910	1.3114	134.20	20.763	1.3239e-05	0.017498	
328.44	1.5022	0.75193	1.3299	405.67	425.25	1.7049	0.93979	1.3140	134.11	20.742	1.3252e-05	0.017527	
328.63	1.5089	0.75578	1.3231	405.74	425.30	1.7048	0.94048	1.3166	134.02	20.723	1.3264e-05	0.017557	
328.81	1.5157	0.75964	1.3164	405.81	425.36	1.7047	0.94117	1.3192	133.93	20.703	1.3276e-05	0.017586	
329.00	1.5225	0.76350	1.3098	405.88	425.42	1.7046	0.94185	1.3219	133.84	20.683	1.3289e-05	0.017616	
329.18	1.5292	0.76736	1.3032	405.95	425.48	1.7045	0.94254	1.3245	133.75	20.664	1.3301e-05	0.017645	
329.36	1.5360	0.77124	1.2966	406.01	425.53	1.7044	0.94322	1.3272	133.65	20.645	1.3314e-05	0.017675	
329.54	1.5428	0.77512	1.2901	406.08	425.59	1.7043	0.94390	1.3298	133.56	20.626	1.3326e-05	0.017705	
329.72	1.5495	0.77901	1.2837	406.15	425.65	1.7042	0.94458	1.3325	133.47	20.607	1.3339e-05	0.017735	
329.90	1.5563	0.78290	1.2773	406.22	425.70	1.7042	0.94526	1.3352	133.38	20.588	1.3352e-05	0.017764	
330.08	1.5631	0.78680	1.2710	406.28	425.75	1.7041	0.94594	1.3379	133.29	20.569	1.3364e-05	0.017794	
330.26	1.5698	0.79071	1.2647	406.35	425.81	1.7040	0.94662	1.3406	133.20	20.551	1.3377e-05	0.017824	
330.44	1.5766	0.79462	1.2585	406.42	425.86	1.7039	0.94729	1.3433	133.10	20.533	1.3389e-05	0.017854	
330.62	1.5834	0.79854	1.2523	406.48	425.92	1.7038	0.94797	1.3460	133.01	20.515	1.3402e-05	0.017884	
330.80	1.5901	0.80247	1.2462	406.55	425.97	1.7037	0.94864	1.3487	132.92	20.497	1.3414e-05	0.017914	
330.97	1.5969	0.80641	1.2401	406.61	426.02	1.7036	0.94931	1.3515	132.83	20.479	1.3427e-05	0.017944	
331.15	1.6037	0.81035	1.2340	406.68	426.07	1.7035	0.94998	1.3542	132.73	20.461	1.3440e-05	0.017974	
331.33	1.6104	0.81430	1.2281	406.74	426.12	1.7034	0.95065	1.3570	132.64	20.444	1.3452e-05	0.018004	
331.50	1.6172	0.81825	1.2221	406.80	426.17	1.7033	0.95132	1.3597	132.55	20.426	1.3465e-05	0.018035	
331.68	1.6239	0.82222	1.2162	406.86	426.22	1.7032	0.95199	1.3625	132.46	20.409	1.3478e-05	0.018065	
331.85	1.6307	0.82619	1.2104	406.93	426.27	1.7031	0.95266	1.3653	132.36	20.392	1.3491e-05	0.018095	
332.03	1.6375	0.83016	1.2046	406.99	426.32	1.7030	0.95332	1.3681	132.27	20.375	1.3503e-05	0.018126	
332.20	1.6442	0.83415	1.1988	407.05	426.37	1.7029	0.95399	1.3709	132.18	20.358	1.3516e-05	0.018156	
332.37	1.6510	0.83814	1.1931	407.11	426.42	1.7029	0.95465	1.3738	132.08	20.342	1.3529e-05	0.018186	
332.54	1.6578	0.84214	1.1875	407.17	426.46	1.7028	0.95532	1.3766	131.99	20.325	1.3542e-05	0.018217	
332.71	1.6645	0.84614	1.1818	407.23	426.51	1.7027	0.95598	1.3795	131.90	20.309	1.3555e-05	0.018248	
332.89	1.6713	0.85016	1.1763	407.29	426.56	1.7026	0.95664	1.3823	131.80	20.292	1.3567e-05	0.018278	
333.06	1.6781	0.85418	1.1707	407.35	426.60	1.7025	0.95730	1.3852	131.71	20.276	1.3580e-05	0.018309	
333.23	1.6848	0.85821	1.1652	407.41	426.65	1.7024	0.95796	1.3881	131.62	20.260	1.3593e-05	0.018340	
333.40	1.6916	0.86224	1.1598	407.47	426.70	1.7023	0.95862	1.3910	131.52	20.244	1.3606e-05	0.018371	
333.56	1.6984	0.86629	1.1544	407.53	426.74	1.7022	0.95927	1.3939	131.43	20.229	1.3619e-05	0.018401	
333.73	1.7051	0.87034	1.1490	407.58	426.78	1.7021	0.95993	1.3968	131.34	20.213	1.3632e-05	0.018432	
333.90	1.7119	0.87439	1.1436	407.64	426.83	1.7020	0.96058	1.3998	131.24	20.198	1.3645e-05	0.018463	
334.07	1.7187	0.87846	1.1384	407.70	426.87	1.7019	0.96124	1.4027	131.15	20.182	1.3658e-05	0.018495	
334.24	1.7254	0.88253	1.1331	407.75	426.91	1.7018	0.96189	1.4057	131.05	20.167	1.3671e-05	0.018526	
334.40	1.7322	0.88661	1.1279	407.81	426.96	1.7017	0.96254	1.4087	130.96	20.152	1.3684e-05	0.018557	
334.57	1.7389	0.89070	1.1227	407.86	427.00	1.7016	0.96320	1.4117	130.86	20.137	1.3697e-05	0.018588	
334.73	1.7457	0.89480	1.1176	407.92	427.04	1.7015	0.96385	1.4147	130.77	20.122	1.3710e-05	0.018620	
334.90	1.7525	0.89890	1.1125	407.97	427.08	1.7014	0.96450	1.4177	130.68	20.107	1.3724e-05	0.018651	
335.06	1.7592	0.90302	1.1074	408.03	427.12	1.7013	0.96515	1.4207	130.58	20.093	1.3737e-05	0.018682	
335.23	1.7660	0.90714	1.1024	408.08	427.16	1.7012	0.96580	1.4238	130.49	20.078	1.3750e-05	0.018714	
335.39	1.7728	0.91126	1.0974	408.13	427.20	1.7011	0.96644	1.4268	130.39	20.064	1.3763e-05	0.018746	
335.55	1.7795	0.91540	1.0924	408.19	427.24	1.7010	0.96709	1.4299	130.30	20.049	1.3776e-05	0.018777	
335.72	1.7863	0.91954	1.0875	408.24	427.28	1.7009	0.96774	1.4330	130.20	20.035	1.3790e-05	0.018809	
335.88	1.7931	0.92370	1.0826	408.29	427.32	1.7008	0.96838	1.4361	130.11	20.021	1.3803e-05	0.018841	
336.04	1.7998	0.92786	1.0778	408.34	427.36	1.7007	0.96903	1.4392	130.01	20.007	1.3816e-05	0.018873	
336.20	1.8066	0.93202	1.0729	408.40	427.39	1.7006	0.96967	1.4424	129.92	19.993	1.3829e-05	0.018905	
336.36	1.8134	0.93620	1.0681	408.45	427.43	1.7005	0.97031	1.4455	129.82	19.980	1.3843e-05	0.018937	
336.52	1.8201	0.94038	1.0634	408.50	427.47	1.7004	0.97096	1.4487	129.73	19.966	1.3856e-05	0.018969	
336.68	1.8269	0.94458	1.0587	408.55	427.50	1.7003	0.97160	1.4518	129.63	19.953	1.3870e-05	0.019001	
336.84	1.8337	0.94878	1.0540	408.60	427.54	1.7002	0.97224	1.4550	129.53	19.939	1.3883e-05	0.019034	
337.00	1.8404	0.95299	1.0493	408.65	427.57	1.7001	0.97288	1.4582	129.44	19.926	1.3897e-05	0.019066	
337.16	1.8472	0.95721	1.0447	408.69	427.61	1.7000	0.97352	1.4615	129.34	19.913	1.3910e-05	0.019099	
337.32	1.8539	0.96143	1.0401	408.74	427.64	1.6999	0.97416	1.4647	129.25	19.900	1.3924e-05	0.019131	
337.48	1.8607	0.96567	1.0356	408.79	427.68	1.6998	0.97480	1.4680	129.15	19.887	1.3937e-05	0.019164	
337.63	1.8675	0.96991	1.0310	408.84	427.71	1.6997	0.97543	1.4712	129.06	19.874	1.3951e-05	0.019196	
337.79	1.8742	0.97416	1.0265	408.89	427.74	1.6996	0.97607	1.4745	128.96	19.861	1.3964e-05	0.019229	
337.95	1.8810	0.97842	1.0221	408.93	427.78	1.6995	0.97671	1.4778	128.86	19.848	1.3978e-05	0.019262	
338.10	1.8878	0.98269	1.0176	408.98	427.81	1.6994	0.97734	1.4812	128.77	19.836	1.3992e-05	0.019295	
338.26	1.8945	0.98697	1.0132	409.03	427.84	1.6993	0.97798	1.4845	128.67	19.823	1.4005e-05	0.019328	
338.41	1.9013	0.99126	1.0088	409.07	427.87	1.6992	0.97861	1.4879	128.58	19.811	1.4019e-05	0.019361	
338.57	1.9081	0.99555	1.0045	409.12	427.90	1.6991	0.97925	1.4912	128.48	19.798	1.4033e-05	0.019395	
338.72	1.9148	0.99985	1.0001	409.16	427.93	1.6990	0.97988	1.4946	128.38	19.786	1.4047e-05	0.019428	
338.88	1.9216	1.0042	0.99585	409.21	427.96	1.6989	0.98052	1.4980	128.29	19.774	1.4061e-05	0.019461	
339.03	1.9284	1.0085	0.99158	409.25	427.99	1.6987	0.98115	1.5015	128.19	19.762	1.4074e-05	0.019495	
339.18	1.9351	1.0128	0.98734	409.30	428.02	1.6986	0.98178	1.5049	128.09	19.750	1.4088e-05	0.019529	
339.34	1.9419	1.0172	0.98313	409.34	428.05	1.6985	0.98241	1.5084	128.00	19.738	1.4102e-05	0.019562	
339.49	1.9487	1.0215	0.97894	409.38	428.08	1.6984	0.98304	1.5119	127.90	19.726	1.4116e-05	0.019596	
339.64	1.9554	1.0259	0.97478	409.42	428.11	1.6983	0.98367	1.5154	127.80	19.715	1.4130e-05	0.019630	
339.79	1.9622	1.0302	0.97065	409.47	428.13	1.6982	0.98430	1.5189	127.70	19.703	1.4144e-05	0.019664	
339.94	1.9690	1.0346	0.96655	409.51	428.16	1.6981	0.98493	1.5224	127.61	19.692	1.4158e-05	0.019698	
340.09	1.9757	1.0390	0.96247	409.55	428.19	1.6980	0.98556	1.5260	127.51	19.680	1.4173e-05	0.019732	
340.24	1.9825	1.0434	0.95841	409.59	428.21	1.6979	0.98619	1.5296	127.41	19.669	1.4187e-05	0.019767	
340.39	1.9892	1.0478	0.95438	409.63	428.24	1.6978	0.98682	1.5332	127.32	19.658	1.4201e-05	0.019801	
340.54	1.9960	1.0522	0.95038	409.67	428.27	1.6977	0.98745	1.5368	127.22	19.646	1.4215e-05	0.019836	
340.69	2.0028	1.0566	0.94640	409.71	428.29	1.6975	0.98807	1.5404	127.12	19.635	1.4229e-05	0.019870	
340.84	2.0095	1.0611	0.94245	409.75	428.31	1.6974	0.98870	1.5441	127.02	19.624	1.4244e-05	0.019905	
340.99	2.0163	1.0655	0.93852	409.79	428.34	1.6973	0.98933	1.5478	126.92	19.613	1.4258e-05	0.019940	
341.14	2.0231	1.0700	0.93461	409.83	428.36	1.6972	0.98995	1.5515	126.83	19.602	1.4272e-05	0.019975	
341.28	2.0298	1.0744	0.93073	409.87	428.39	1.6971	0.99058	1.5552	126.73	19.592	1.4287e-05	0.020010	
341.43	2.0366	1.0789	0.92687	409.91	428.41	1.6970	0.99121	1.5589	126.63	19.581	1.4301e-05	0.020045	
341.58	2.0434	1.0834	0.92304	409.95	428.43	1.6969	0.99183	1.5627	126.53	19.570	1.4316e-05	0.020080	
341.73	2.0501	1.0879	0.91923	409.98	428.45	1.6968	0.99245	1.5665	126.43	19.560	1.4330e-05	0.020116	
341.87	2.0569	1.0924	0.91544	410.02	428.48	1.6966	0.99308	1.5703	126.34	19.549	1.4345e-05	0.020151	
342.02	2.0637	1.0969	0.91167	410.06	428.50	1.6965	0.99370	1.5741	126.24	19.539	1.4359e-05	0.020187	
342.16	2.0704	1.1014	0.90793	410.09	428.52	1.6964	0.99433	1.5780	126.14	19.529	1.4374e-05	0.020222	
342.31	2.0772	1.1059	0.90421	410.13	428.54	1.6963	0.99495	1.5819	126.04	19.518	1.4389e-05	0.020258	
342.45	2.0840	1.1105	0.90051	410.17	428.56	1.6962	0.99557	1.5858	125.94	19.508	1.4403e-05	0.020294	
342.60	2.0907	1.1150	0.89683	410.20	428.58	1.6961	0.99620	1.5897	125.84	19.498	1.4418e-05	0.020330	
342.74	2.0975	1.1196	0.89318	410.24	428.60	1.6959	0.99682	1.5936	125.75	19.488	1.4433e-05	0.020367	
342.88	2.1042	1.1242	0.88955	410.27	428.62	1.6958	0.99744	1.5976	125.65	19.478	1.4448e-05	0.020403	
343.03	2.1110	1.1288	0.88593	410.30	428.63	1.6957	0.99806	1.6016	125.55	19.468	1.4463e-05	0.020439	
343.17	2.1178	1.1333	0.88234	410.34	428.65	1.6956	0.99868	1.6056	125.45	19.458	1.4477e-05	0.020476	
343.31	2.1245	1.1379	0.87877	410.37	428.67	1.6955	0.99930	1.6097	125.35	19.449	1.4492e-05	0.020513	
343.45	2.1313	1.1426	0.87522	410.40	428.69	1.6954	0.99993	1.6137	125.25	19.439	1.4507e-05	0.020549	
343.60	2.1381	1.1472	0.87169	410.44	428.70	1.6952	1.0005	1.6178	125.15	19.429	1.4522e-05	0.020586	
343.74	2.1448	1.1518	0.86819	410.47	428.72	1.6951	1.0012	1.6220	125.05	19.420	1.4538e-05	0.020623	
343.88	2.1516	1.1565	0.86470	410.50	428.74	1.6950	1.0018	1.6261	124.95	19.410	1.4553e-05	0.020661	
344.02	2.1584	1.1611	0.86123	410.53	428.75	1.6949	1.0024	1.6303	124.85	19.401	1.4568e-05	0.020698	
344.16	2.1651	1.1658	0.85778	410.56	428.77	1.6947	1.0030	1.6345	124.75	19.392	1.4583e-05	0.020735	
344.30	2.1719	1.1705	0.85435	410.60	428.78	1.6946	1.0036	1.6387	124.66	19.382	1.4598e-05	0.020773	
344.44	2.1787	1.1752	0.85094	410.63	428.80	1.6945	1.0043	1.6430	124.56	19.373	1.4614e-05	0.020811	
344.58	2.1854	1.1799	0.84755	410.66	428.81	1.6944	1.0049	1.6472	124.46	19.364	1.4629e-05	0.020849	
344.72	2.1922	1.1846	0.84418	410.69	428.82	1.6943	1.0055	1.6516	124.36	19.355	1.4645e-05	0.020887	
344.86	2.1990	1.1893	0.84082	410.72	428.84	1.6941	1.0061	1.6559	124.26	19.346	1.4660e-05	0.020925	
345.00	2.2057	1.1940	0.83749	410.74	428.85	1.6940	1.0067	1.6603	124.16	19.337	1.4675e-05	0.020963	
345.13	2.2125	1.1988	0.83417	410.77	428.86	1.6939	1.0074	1.6646	124.06	19.328	1.4691e-05	0.021002	
345.27	2.2192	1.2036	0.83087	410.80	428.87	1.6938	1.0080	1.6691	123.96	19.319	1.4707e-05	0.021040	
345.41	2.2260	1.2083	0.82759	410.83	428.88	1.6936	1.0086	1.6735	123.86	19.310	1.4722e-05	0.021079	
345.55	2.2328	1.2131	0.82433	410.86	428.90	1.6935	1.0092	1.6780	123.76	19.301	1.4738e-05	0.021118	
345.68	2.2395	1.2179	0.82109	410.88	428.91	1.6934	1.0098	1.6825	123.66	19.293	1.4754e-05	0.021157	
345.82	2.2463	1.2227	0.81786	410.91	428.92	1.6933	1.0105	1.6871	123.56	19.284	1.4770e-05	0.021196	
345.96	2.2531	1.2275	0.81465	410.94	428.93	1.6931	1.0111	1.6916	123.45	19.275	1.4785e-05	0.021235	
346.09	2.2598	1.2324	0.81146	410.96	428.94	1.6930	1.0117	1.6962	123.35	19.267	1.4801e-05	0.021275	
346.23	2.2666	1.2372	0.80828	410.99	428.95	1.6929	1.0123	1.7009	123.25	19.258	1.4817e-05	0.021314	
346.36	2.2734	1.2420	0.80512	411.02	428.95	1.6927	1.0129	1.7055	123.15	19.250	1.4833e-05	0.021354	
346.50	2.2801	1.2469	0.80198	411.04	428.96	1.6926	1.0135	1.7102	123.05	19.241	1.4849e-05	0.021394	
346.63	2.2869	1.2518	0.79886	411.06	428.97	1.6925	1.0142	1.7150	122.95	19.233	1.4865e-05	0.021434	
346.77	2.2937	1.2567	0.79575	411.09	428.98	1.6923	1.0148	1.7197	122.85	19.225	1.4882e-05	0.021474	
346.90	2.3004	1.2616	0.79266	411.11	428.98	1.6922	1.0154	1.7245	122.75	19.216	1.4898e-05	0.021515	
347.04	2.3072	1.2665	0.78958	411.14	428.99	1.6921	1.0160	1.7294	122.65	19.208	1.4914e-05	0.021555	
347.17	2.3140	1.2714	0.78652	411.16	429.00	1.6919	1.0166	1.7342	122.55	19.200	1.4930e-05	0.021596	
347.30	2.3207	1.2764	0.78348	411.18	429.00	1.6918	1.0173	1.7391	122.45	19.192	1.4947e-05	0.021637	
347.44	2.3275	1.2813	0.78045	411.21	429.01	1.6917	1.0179	1.7441	122.35	19.184	1.4963e-05	0.021678	
347.57	2.3343	1.2863	0.77744	411.23	429.01	1.6915	1.0185	1.7490	122.24	19.176	1.4980e-05	0.021719	
347.70	2.3410	1.2913	0.77444	411.25	429.02	1.6914	1.0191	1.7540	122.14	19.168	1.4996e-05	0.021761	
347.83	2.3478	1.2962	0.77146	411.27	429.02	1.6913	1.0197	1.7591	122.04	19.160	1.5013e-05	0.021802	
347.96	2.3545	1.3013	0.76849	411.29	429.03	1.6911	1.0203	1.7642	121.94	19.152	1.5029e-05	0.021844	
348.10	2.3613	1.3063	0.76554	411.31	429.03	1.6910	1.0210	1.7693	121.84	19.144	1.5046e-05	0.021886	
348.23	2.3681	1.3113	0.76260	411.33	429.03	1.6909	1.0216	1.7744	121.74	19.136	1.5063e-05	0.021928	
348.36	2.3748	1.3163	0.75968	411.35	429.03	1.6907	1.0222	1.7796	121.63	19.129	1.5080e-05	0.021970	
348.49	2.3816	1.3214	0.75677	411.37	429.04	1.6906	1.0228	1.7849	121.53	19.121	1.5097e-05	0.022013	
348.62	2.3884	1.3265	0.75388	411.39	429.04	1.6905	1.0234	1.7901	121.43	19.113	1.5114e-05	0.022055	
348.75	2.3951	1.3316	0.75100	411.41	429.04	1.6903	1.0241	1.7954	121.33	19.106	1.5131e-05	0.022098	
348.88	2.4019	1.3367	0.74814	411.43	429.04	1.6902	1.0247	1.8008	121.23	19.098	1.5148e-05	0.022141	
349.01	2.4087	1.3418	0.74529	411.45	429.04	1.6900	1.0253	1.8062	121.12	19.091	1.5165e-05	0.022184	
349.14	2.4154	1.3469	0.74245	411.46	429.04	1.6899	1.0259	1.8116	121.02	19.083	1.5182e-05	0.022228	
349.27	2.4222	1.3520	0.73963	411.48	429.04	1.6897	1.0265	1.8171	120.92	19.076	1.5199e-05	0.022271	
349.39	2.4290	1.3572	0.73682	411.50	429.04	1.6896	1.0272	1.8226	120.82	19.068	1.5217e-05	0.022315	
349.52	2.4357	1.3623	0.73403	411.52	429.04	1.6895	1.0278	1.8282	120.71	19.061	1.5234e-05	0.022359	
349.65	2.4425	1.3675	0.73124	411.53	429.04	1.6893	1.0284	1.8338	120.61	19.053	1.5252e-05	0.022403	
349.78	2.4493	1.3727	0.72848	411.55	429.03	1.6892	1.0290	1.8394	120.51	19.046	1.5269e-05	0.022447	
349.91	2.4560	1.3779	0.72572	411.56	429.03	1.6890	1.0296	1.8451	120.41	19.039	1.5287e-05	0.022492	
350.03	2.4628	1.3832	0.72298	411.58	429.03	1.6889	1.0303	1.8508	120.30	19.031	1.5304e-05	0.022536	
350.16	2.4695	1.3884	0.72025	411.59	429.03	1.6887	1.0309	1.8566	120.20	19.024	1.5322e-05	0.022581	
350.29	2.4763	1.3937	0.71754	411.61	429.02	1.6886	1.0315	1.8625	120.10	19.017	1.5340e-05	0.022626	
350.41	2.4831	1.3989	0.71483	411.62	429.02	1.6884	1.0321	1.8683	120.00	19.010	1.5358e-05	0.022672	
350.54	2.4898	1.4042	0.71215	411.63	429.01	1.6883	1.0327	1.8743	119.89	19.002	1.5376e-05	0.022717	
350.66	2.4966	1.4095	0.70947	411.65	429.01	1.6881	1.0334	1.8802	119.79	18.995	1.5394e-05	0.022763	
350.79	2.5034	1.4148	0.70680	411.66	429.00	1.6880	1.0340	1.8863	119.69	18.988	1.5412e-05	0.022809	
350.92	2.5101	1.4202	0.70415	411.67	429.00	1.6878	1.0346	1.8923	119.58	18.981	1.5430e-05	0.022855	
351.04	2.5169	1.4255	0.70151	411.69	428.99	1.6877	1.0352	1.8984	119.48	18.974	1.5448e-05	0.022902	
351.17	2.5237	1.4309	0.69888	411.70	428.98	1.6875	1.0359	1.9046	119.38	18.967	1.5466e-05	0.022948	
351.29	2.5304	1.4362	0.69627	411.71	428.98	1.6874	1.0365	1.9108	119.27	18.960	1.5485e-05	0.022995	
351.41	2.5372	1.4416	0.69366	411.72	428.97	1.6872	1.0371	1.9171	119.17	18.953	1.5503e-05	0.023042	
351.54	2.5440	1.4470	0.69107	411.73	428.96	1.6871	1.0377	1.9234	119.07	18.946	1.5522e-05	0.023089	
351.66	2.5507	1.4525	0.68849	411.74	428.95	1.6869	1.0383	1.9298	118.96	18.939	1.5540e-05	0.023137	
351.79	2.5575	1.4579	0.68592	411.75	428.94	1.6868	1.0390	1.9363	118.86	18.932	1.5559e-05	0.023185	
351.91	2.5643	1.4633	0.68336	411.76	428.93	1.6866	1.0396	1.9428	118.75	18.925	1.5578e-05	0.023233	
352.03	2.5710	1.4688	0.68082	411.77	428.92	1.6865	1.0402	1.9493	118.65	18.919	1.5596e-05	0.023281	
352.15	2.5778	1.4743	0.67828	411.78	428.91	1.6863	1.0408	1.9559	118.55	18.912	1.5615e-05	0.023329	
352.28	2.5845	1.4798	0.67576	411.79	428.90	1.6861	1.0415	1.9626	118.44	18.905	1.5634e-05	0.023378	
352.40	2.5913	1.4853	0.67325	411.79	428.89	1.6860	1.0421	1.9693	118.34	18.898	1.5653e-05	0.023427	
352.52	2.5981	1.4909	0.67075	411.80	428.88	1.6858	1.0427	1.9761	118.23	18.891	1.5672e-05	0.023476	
352.64	2.6048	1.4964	0.66826	411.81	428.87	1.6857	1.0434	1.9829	118.13	18.885	1.5692e-05	0.023525	
352.76	2.6116	1.5020	0.66578	411.81	428.86	1.6855	1.0440	1.9898	118.02	18.878	1.5711e-05	0.023575	
352.89	2.6184	1.5076	0.66331	411.82	428.84	1.6853	1.0446	1.9968	117.92	18.871	1.5730e-05	0.023625	
353.01	2.6251	1.5132	0.66085	411.83	428.83	1.6852	1.0452	2.0038	117.82	18.864	1.5750e-05	0.023675	
353.13	2.6319	1.5188	0.65841	411.83	428.82	1.6850	1.0459	2.0109	117.71	18.858	1.5769e-05	0.023725	
353.25	2.6387	1.5245	0.65597	411.84	428.80	1.6849	1.0465	2.0180	117.61	18.851	1.5789e-05	0.023776	
353.37	2.6454	1.5301	0.65354	411.84	428.79	1.6847	1.0471	2.0252	117.50	18.844	1.5808e-05	0.023827	
353.49	2.6522	1.5358	0.65113	411.85	428.77	1.6845	1.0478	2.0325	117.40	18.838	1.5828e-05	0.023878	
353.61	2.6590	1.5415	0.64872	411.85	428.76	1.6844	1.0484	2.0399	117.29	18.831	1.5848e-05	0.023929	
353.73	2.6657	1.5472	0.64633	411.85	428.74	1.6842	1.0490	2.0473	117.19	18.824	1.5868e-05	0.023981	
353.85	2.6725	1.5529	0.64394	411.86	428.72	1.6840	1.0497	2.0548	117.08	18.818	1.5888e-05	0.024033	
353.97	2.6793	1.5587	0.64157	411.86	428.71	1.6839	1.0503	2.0624	116.98	18.811	1.5908e-05	0.024085	
354.08	2.6860	1.5645	0.63920	411.86	428.69	1.6837	1.0509	2.0700	116.87	18.804	1.5928e-05	0.024138	
354.20	2.6928	1.5702	0.63685	411.86	428.67	1.6835	1.0516	2.0777	116.77	18.798	1.5949e-05	0.024191	
354.32	2.6996	1.5760	0.63450	411.87	428.65	1.6834	1.0522	2.0855	116.66	18.791	1.5969e-05	0.024244	
354.44	2.7063	1.5819	0.63216	411.87	428.63	1.6832	1.0528	2.0933	116.56	18.785	1.5990e-05	0.024297	
354.56	2.7131	1.5877	0.62984	411.87	428.62	1.6830	1.0535	2.1012	116.45	18.778	1.6010e-05	0.024351	
354.67	2.7198	1.5936	0.62752	411.87	428.60	1.6828	1.0541	2.1092	116.34	18.772	1.6031e-05	0.024405	
354.79	2.7266	1.5995	0.62521	411.87	428.58	1.6827	1.0547	2.1173	116.24	18.765	1.6052e-05	0.024459	
354.91	2.7334	1.6054	0.62291	411.87	428.56	1.6825	1.0554	2.1255	116.13	18.758	1.6073e-05	0.024514	
355.03	2.7401	1.6113	0.62062	411.87	428.53	1.6823	1.0560	2.1337	116.03	18.752	1.6094e-05	0.024568	
355.14	2.7469	1.6172	0.61834	411.87	428.51	1.6821	1.0567	2.1421	115.92	18.745	1.6115e-05	0.024624	
355.26	2.7537	1.6232	0.61607	411.86	428.49	1.6820	1.0573	2.1505	115.82	18.739	1.6136e-05	0.024679	
355.38	2.7604	1.6292	0.61381	411.86	428.47	1.6818	1.0580	2.1590	115.71	18.732	1.6157e-05	0.024735	
355.49	2.7672	1.6352	0.61155	411.86	428.44	1.6816	1.0586	2.1675	115.60	18.726	1.6178e-05	0.024791	
355.61	2.7740	1.6412	0.60931	411.86	428.42	1.6814	1.0592	2.1762	115.50	18.719	1.6200e-05	0.024847	
355.72	2.7807	1.6473	0.60707	411.85	428.40	1.6812	1.0599	2.1850	115.39	18.712	1.6221e-05	0.024904	
355.84	2.7875	1.6533	0.60484	411.85	428.37	1.6811	1.0605	2.1938	115.28	18.706	1.6243e-05	0.024961	
355.95	2.7943	1.6594	0.60263	411.84	428.35	1.6809	1.0612	2.2027	115.18	18.699	1.6265e-05	0.025018	
356.07	2.8010	1.6655	0.60042	411.84	428.32	1.6807	1.0618	2.2118	115.07	18.693	1.6287e-05	0.025076	
356.18	2.8078	1.6716	0.59821	411.83	428.30	1.6805	1.0625	2.2209	114.96	18.686	1.6309e-05	0.025134	
356.30	2.8146	1.6778	0.59602	411.83	428.27	1.6803	1.0631	2.2301	114.86	18.679	1.6331e-05	0.025193	
356.41	2.8213	1.6840	0.59383	411.82	428.24	1.6801	1.0638	2.2394	114.75	18.673	1.6353e-05	0.025251	
356.53	2.8281	1.6902	0.59166	411.82	428.22	1.6799	1.0644	2.2489	114.64	18.666	1.6375e-05	0.025310	
356.64	2.8348	1.6964	0.58949	411.81	428.19	1.6798	1.0651	2.2584	114.54	18.660	1.6398e-05	0.025370	
356.75	2.8416	1.7026	0.58733	411.80	428.16	1.6796	1.0657	2.2680	114.43	18.653	1.6420e-05	0.025429	
356.87	2.8484	1.7089	0.58517	411.79	428.13	1.6794	1.0664	2.2777	114.32	18.646	1.6443e-05	0.025490	
356.98	2.8551	1.7152	0.58303	411.79	428.10	1.6792	1.0670	2.2875	114.22	18.640	1.6466e-05	0.025550	
357.09	2.8619	1.7215	0.58089	411.78	428.07	1.6790	1.0677	2.2975	114.11	18.633	1.6489e-05	0.025611	
357.21	2.8687	1.7278	0.57876	411.77	428.04	1.6788	1.0683	2.3075	114.00	18.626	1.6512e-05	0.025672	
357.32	2.8754	1.7342	0.57664	411.76	428.01	1.6786	1.0690	2.3177	113.89	18.619	1.6535e-05	0.025734	
357.43	2.8822	1.7406	0.57453	411.75	427.98	1.6784	1.0696	2.3280	113.79	18.613	1.6558e-05	0.025796	
357.54	2.8890	1.7470	0.57242	411.74	427.94	1.6782	1.0703	2.3384	113.68	18.606	1.6582e-05	0.025858	
357.65	2.8957	1.7534	0.57032	411.73	427.91	1.6780	1.0710	2.3489	113.57	18.599	1.6605e-05	0.025921	
357.77	2.9025	1.7599	0.56823	411.71	427.88	1.6778	1.0716	2.3595	113.46	18.592	1.6629e-05	0.025984	
357.88	2.9093	1.7663	0.56615	411.70	427.85	1.6776	1.0723	2.3703	113.36	18.586	1.6652e-05	0.026047	
357.99	2.9160	1.7728	0.56407	411.69	427.81	1.6774	1.0729	2.3811	113.25	18.579	1.6676e-05	0.026111	
358.10	2.9228	1.7794	0.56200	411.68	427.78	1.6772	1.0736	2.3921	113.14	18.572	1.6700e-05	0.026176	
358.21	2.9296	1.7859	0.55994	411.66	427.74	1.6770	1.0743	2.4033	113.03	18.565	1.6724e-05	0.026240	
358.32	2.9363	1.7925	0.55788	411.65	427.70	1.6768	1.0749	2.4145	112.92	18.558	1.6749e-05	0.026305	
358.43	2.9431	1.7991	0.55583	411.64	427.67	1.6766	1.0756	2.4259	112.81	18.551	1.6773e-05	0.026371	
358.54	2.9498	1.8057	0.55379	411.62	427.63	1.6764	1.0763	2.4374	112.71	18.544	1.6798e-05	0.026437	
358.65	2.9566	1.8124	0.55175	411.61	427.59	1.6762	1.0769	2.4491	112.60	18.537	1.6822e-05	0.026503	
358.76	2.9634	1.8191	0.54973	411.59	427.56	1.6760	1.0776	2.4609	112.49	18.530	1.6847e-05	0.026570	
358.87	2.9701	1.8258	0.54770	411.57	427.52	1.6758	1.0783	2.4729	112.38	18.523	1.6872e-05	0.026638	
358.98	2.9769	1.8325	0.54569	411.56	427.48	1.6756	1.0790	2.4850	112.27	18.516	1.6897e-05	0.026705	
359.09	2.9837	1.8393	0.54368	411.54	427.44	1.6754	1.0796	2.4972	112.16	18.509	1.6922e-05	0.026774	
359.20	2.9904	1.8461	0.54168	411.52	427.40	1.6751	1.0803	2.5096	112.05	18.502	1.6948e-05	0.026842	
359.31	2.9972	1.8529	0.53969	411.50	427.36	1.6749	1.0810	2.5222	111.95	18.495	1.6973e-05	0.026911	
359.42	3.0040	1.8598	0.53770	411.48	427.31	1.6747	1.0817	2.5349	111.84	18.488	1.6999e-05	0.026981	
359.53	3.0107	1.8667	0.53571	411.46	427.27	1.6745	1.0823	2.5478	111.73	18.480	1.7025e-05	0.027051	
359.63	3.0175	1.8736	0.53374	411.44	427.23	1.6743	1.0830	2.5608	111.62	18.473	1.7051e-05	0.027122	
359.74	3.0243	1.8805	0.53177	411.42	427.19	1.6741	1.0837	2.5740	111.51	18.466	1.7077e-05	0.027193	
359.85	3.0310	1.8875	0.52981	411.40	427.14	1.6738	1.0844	2.5874	111.40	18.458	1.7103e-05	0.027264	
359.96	3.0378	1.8945	0.52785	411.38	427.10	1.6736	1.0851	2.6009	111.29	18.451	1.7130e-05	0.027336	
360.06	3.0446	1.9015	0.52590	411.36	427.05	1.6734	1.0858	2.6147	111.18	18.443	1.7156e-05	0.027409	
360.17	3.0513	1.9086	0.52395	411.34	427.01	1.6732	1.0865	2.6286	111.07	18.436	1.7183e-05	0.027482	
360.28	3.0581	1.9157	0.52201	411.31	426.96	1.6729	1.0871	2.6427	110.96	18.428	1.7210e-05	0.027556	
360.39	3.0649	1.9228	0.52008	411.29	426.91	1.6727	1.0878	2.6570	110.85	18.421	1.7237e-05	0.027630	
360.49	3.0716	1.9299	0.51815	411.27	426.86	1.6725	1.0885	2.6714	110.74	18.413	1.7264e-05	0.027705	
360.60	3.0784	1.9371	0.51623	411.24	426.82	1.6723	1.0892	2.6861	110.63	18.405	1.7292e-05	0.027780	
360.71	3.0851	1.9444	0.51431	411.22	426.77	1.6720	1.0899	2.7010	110.52	18.398	1.7319e-05	0.027856	
360.81	3.0919	1.9516	0.51240	411.19	426.72	1.6718	1.0906	2.7160	110.41	18.390	1.7347e-05	0.027932	
360.92	3.0987	1.9589	0.51049	411.16	426.67	1.6716	1.0913	2.7313	110.30	18.382	1.7375e-05	0.028009	
361.02	3.1054	1.9662	0.50859	411.14	426.62	1.6713	1.0920	2.7468	110.19	18.374	1.7403e-05	0.028086	
361.13	3.1122	1.9736	0.50670	411.11	426.56	1.6711	1.0927	2.7626	110.08	18.366	1.7431e-05	0.028164	
361.23	3.1190	1.9810	0.50481	411.08	426.51	1.6709	1.0934	2.7785	109.97	18.358	1.7460e-05	0.028243	
361.34	3.1257	1.9884	0.50292	411.05	426.46	1.6706	1.0941	2.7947	109.86	18.350	1.7489e-05	0.028322	
361.44	3.1325	1.9958	0.50104	411.02	426.41	1.6704	1.0948	2.8111	109.75	18.342	1.7517e-05	0.028402	
361.55	3.1393	2.0033	0.49917	410.99	426.35	1.6701	1.0955	2.8277	109.64	18.333	1.7546e-05	0.028483	
361.65	3.1460	2.0109	0.49730	410.96	426.30	1.6699	1.0963	2.8446	109.52	18.325	1.7576e-05	0.028564	
361.76	3.1528	2.0184	0.49544	410.93	426.24	1.6696	1.0970	2.8617	109.41	18.317	1.7605e-05	0.028646	
361.86	3.1596	2.0260	0.49358	410.90	426.18	1.6694	1.0977	2.8791	109.30	18.308	1.7635e-05	0.028728	
361.97	3.1663	2.0337	0.49172	410.87	426.13	1.6692	1.0984	2.8968	109.19	18.300	1.7665e-05	0.028811	
362.07	3.1731	2.0413	0.48987	410.83	426.07	1.6689	1.0991	2.9147	109.08	18.291	1.7695e-05	0.028895	
362.17	3.1799	2.0491	0.48803	410.80	426.01	1.6687	1.0998	2.9329	108.97	18.283	1.7725e-05	0.028979	
362.28	3.1866	2.0568	0.48619	410.77	425.95	1.6684	1.1006	2.9513	108.86	18.274	1.7755e-05	0.029065	
362.38	3.1934	2.0646	0.48435	410.73	425.89	1.6681	1.1013	2.9701	108.74	18.265	1.7786e-05	0.029150	
362.48	3.2001	2.0724	0.48252	410.70	425.83	1.6679	1.1020	2.9891	108.63	18.256	1.7817e-05	0.029237	
362.59	3.2069	2.0803	0.48070	410.66	425.77	1.6676	1.1027	3.0085	108.52	18.247	1.7848e-05	0.029324	
362.69	3.2137	2.0882	0.47887	410.62	425.71	1.6674	1.1035	3.0281	108.41	18.238	1.7879e-05	0.029412	
362.79	3.2204	2.0962	0.47706	410.59	425.64	1.6671	1.1042	3.0481	108.30	18.229	1.7911e-05	0.029501	
362.89	3.2272	2.1042	0.47524	410.55	425.58	1.6668	1.1049	3.0684	108.18	18.220	1.7942e-05	0.029591	
363.00	3.2340	2.1122	0.47343	410.51	425.51	1.6666	1.1057	3.0890	108.07	18.210	1.7974e-05	0.029681	
363.10	3.2407	2.1203	0.47163	410.47	425.45	1.6663	1.1064	3.1099	107.96	18.201	1.8007e-05	0.029772	
363.20	3.2475	2.1284	0.46983	410.43	425.38	1.6660	1.1072	3.1312	107.84	18.191	1.8039e-05	0.029864	
363.30	3.2543	2.1366	0.46803	410.39	425.32	1.6658	1.1079	3.1529	107.73	18.182	1.8072e-05	0.029956	
363.40	3.2610	2.1448	0.46624	410.35	425.25	1.6655	1.1086	3.1749	107.62	18.172	1.8105e-05	0.030050	
363.50	3.2678	2.1531	0.46445	410.30	425.18	1.6652	1.1094	3.1973	107.51	18.162	1.8138e-05	0.030144	
363.61	3.2746	2.1614	0.46267	410.26	425.11	1.6650	1.1102	3.2200	107.39	18.152	1.8171e-05	0.030240	
363.71	3.2813	2.1697	0.46088	410.22	425.04	1.6647	1.1109	3.2432	107.28	18.142	1.8205e-05	0.030336	
363.81	3.2881	2.1781	0.45911	410.17	424.97	1.6644	1.1117	3.2668	107.17	18.132	1.8239e-05	0.030433	
363.91	3.2949	2.1866	0.45733	410.13	424.90	1.6641	1.1124	3.2908	107.05	18.122	1.8273e-05	0.030531	
364.01	3.3016	2.1951	0.45556	410.08	424.82	1.6638	1.1132	3.3152	106.94	18.111	1.8308e-05	0.030630	
364.11	3.3084	2.2036	0.45379	410.03	424.75	1.6635	1.1139	3.3400	106.82	18.101	1.8342e-05	0.030729	
364.21	3.3152	2.2122	0.45203	409.99	424.67	1.6633	1.1147	3.3653	106.71	18.090	1.8377e-05	0.030830	
364.31	3.3219	2.2209	0.45027	409.94	424.60	1.6630	1.1155	3.3911	106.60	18.080	1.8413e-05	0.030932	
364.41	3.3287	2.2296	0.44851	409.89	424.52	1.6627	1.1163	3.4173	106.48	18.069	1.8448e-05	0.031034	
364.51	3.3354	2.2383	0.44676	409.84	424.44	1.6624	1.1170	3.4440	106.37	18.058	1.8484e-05	0.031138	
364.61	3.3422	2.2471	0.44501	409.79	424.37	1.6621	1.1178	3.4712	106.25	18.047	1.8520e-05	0.031243	
364.71	3.3490	2.2560	0.44326	409.74	424.29	1.6618	1.1186	3.4990	106.14	18.035	1.8557e-05	0.031349	
364.81	3.3557	2.2649	0.44152	409.68	424.21	1.6615	1.1194	3.5272	106.02	18.024	1.8594e-05	0.031456	
364.90	3.3625	2.2739	0.43977	409.63	424.12	1.6612	1.1202	3.5560	105.91	18.013	1.8631e-05	0.031564	
365.00	3.3693	2.2829	0.43803	409.58	424.04	1.6609	1.1209	3.5854	105.79	18.001	1.8668e-05	0.031673	
365.10	3.3760	2.2920	0.43630	409.52	423.96	1.6606	1.1217	3.6154	105.68	17.989	1.8706e-05	0.031783	
365.20	3.3828	2.3012	0.43456	409.47	423.87	1.6603	1.1225	3.6459	105.56	17.977	1.8744e-05	0.031894	
365.30	3.3896	2.3104	0.43283	409.41	423.79	1.6599	1.1233	3.6771	105.45	17.965	1.8782e-05	0.032007	
365.40	3.3963	2.3196	0.43110	409.35	423.70	1.6596	1.1241	3.7089	105.33	17.953	1.8821e-05	0.032121	
365.49	3.4031	2.3289	0.42938	409.29	423.61	1.6593	1.1249	3.7413	105.22	17.940	1.8860e-05	0.032236	
365.59	3.4099	2.3383	0.42765	409.23	423.52	1.6590	1.1257	3.7745	105.10	17.928	1.8900e-05	0.032352	
365.69	3.4166	2.3478	0.42593	409.17	423.43	1.6587	1.1266	3.8083	104.98	17.915	1.8939e-05	0.032470	
365.79	3.4234	2.3573	0.42421	409.11	423.34	1.6583	1.1274	3.8428	104.87	17.902	1.8980e-05	0.032589	
365.88	3.4302	2.3669	0.42249	409.05	423.25	1.6580	1.1282	3.8781	104.75	17.889	1.9020e-05	0.032709	
365.98	3.4369	2.3765	0.42078	408.98	423.16	1.6577	1.1290	3.9141	104.63	17.876	1.9061e-05	0.032831	
366.08	3.4437	2.3863	0.41907	408.92	423.06	1.6573	1.1298	3.9510	104.52	17.862	1.9102e-05	0.032954	
366.17	3.4504	2.3961	0.41735	408.85	422.97	1.6570	1.1307	3.9886	104.40	17.849	1.9144e-05	0.033079	
366.27	3.4572	2.4059	0.41564	408.79	422.87	1.6567	1.1315	4.0271	104.28	17.835	1.9186e-05	0.033205	
366.37	3.4640	2.4158	0.41393	408.72	422.77	1.6563	1.1323	4.0665	104.16	17.821	1.9229e-05	0.033333	
366.46	3.4707	2.4258	0.41223	408.65	422.67	1.6560	1.1332	4.1068	104.05	17.806	1.9272e-05	0.033462	
366.56	3.4775	2.4359	0.41052	408.58	422.57	1.6556	1.1340	4.1480	103.93	17.792	1.9315e-05	0.033593	
366.66	3.4843	2.4461	0.40882	408.51	422.47	1.6553	1.1349	4.1902	103.81	17.777	1.9359e-05	0.033725	
366.75	3.4910	2.4563	0.40711	408.44	422.37	1.6549	1.1357	4.2334	103.69	17.762	1.9403e-05	0.033859	
366.85	3.4978	2.4666	0.40541	408.37	422.26	1.6546	1.1366	4.2776	103.57	17.747	1.9448e-05	0.033995	
366.94	3.5046	2.4770	0.40371	408.29	422.16	1.6542	1.1375	4.3229	103.45	17.732	1.9493e-05	0.034133	
367.04	3.5113	2.4875	0.40201	408.22	422.05	1.6538	1.1383	4.3693	103.33	17.716	1.9539e-05	0.034272	
367.13	3.5181	2.4981	0.40031	408.14	421.94	1.6535	1.1392	4.4169	103.22	17.701	1.9585e-05	0.034414	
367.23	3.5249	2.5087	0.39861	408.06	421.83	1.6531	1.1401	4.4657	103.10	17.685	1.9631e-05	0.034557	
367.32	3.5316	2.5195	0.39691	407.98	421.72	1.6527	1.1409	4.5158	102.98	17.668	1.9678e-05	0.034702	
367.42	3.5384	2.5303	0.39521	407.90	421.61	1.6523	1.1418	4.5671	102.86	17.652	1.9726e-05	0.034849	
367.51	3.5452	2.5412	0.39351	407.82	421.49	1.6520	1.1427	4.6198	102.74	17.635	1.9774e-05	0.034999	
367.61	3.5519	2.5522	0.39182	407.74	421.38	1.6516	1.1436	4.6740	102.62	17.618	1.9823e-05	0.035150	
367.70	3.5587	2.5633	0.39012	407.65	421.26	1.6512	1.1445	4.7295	102.50	17.600	1.9872e-05	0.035304	
367.79	3.5654	2.5745	0.38842	407.57	421.14	1.6508	1.1454	4.7866	102.37	17.583	1.9922e-05	0.035460	
367.89	3.5722	2.5858	0.38672	407.48	421.02	1.6504	1.1463	4.8453	102.25	17.565	1.9972e-05	0.035619	
367.98	3.5790	2.5972	0.38502	407.39	420.90	1.6500	1.1472	4.9057	102.13	17.547	2.0023e-05	0.035779	
368.07	3.5857	2.6088	0.38332	407.30	420.77	1.6496	1.1482	4.9678	102.01	17.528	2.0075e-05	0.035943	
368.17	3.5925	2.6204	0.38162	407.21	420.65	1.6492	1.1491	5.0317	101.89	17.509	2.0127e-05	0.036109	
368.26	3.5993	2.6321	0.37992	407.12	420.52	1.6488	1.1500	5.0975	101.77	17.490	2.0180e-05	0.036277	
368.35	3.6060	2.6440	0.37822	407.02	420.39	1.6483	1.1510	5.1652	101.64	17.471	2.0234e-05	0.036448	
368.45	3.6128	2.6559	0.37652	406.92	420.26	1.6479	1.1519	5.2351	101.52	17.451	2.0288e-05	0.036623	
368.54	3.6196	2.6680	0.37481	406.83	420.12	1.6475	1.1529	5.3070	101.40	17.431	2.0343e-05	0.036800	
368.63	3.6263	2.6802	0.37311	406.73	419.99	1.6470	1.1538	5.3813	101.27	17.410	2.0399e-05	0.036980	
368.72	3.6331	2.6925	0.37140	406.63	419.85	1.6466	1.1548	5.4579	101.15	17.389	2.0455e-05	0.037163	
368.82	3.6399	2.7050	0.36969	406.52	419.71	1.6462	1.1557	5.5370	101.02	17.368	2.0512e-05	0.037350	
368.91	3.6466	2.7176	0.36797	406.42	419.57	1.6457	1.1567	5.6187	100.90	17.346	2.0570e-05	0.037540	
369.00	3.6534	2.7303	0.36626	406.31	419.42	1.6453	1.1577	5.7032	100.77	17.324	2.0629e-05	0.037733	
369.09	3.6602	2.7432	0.36454	406.20	419.28	1.6448	1.1587	5.7905	100.65	17.301	2.0689e-05	0.037930	
369.18	3.6669	2.7562	0.36282	406.09	419.13	1.6443	1.1597	5.8809	100.52	17.279	2.0749e-05	0.038131	
369.27	3.6737	2.7693	0.36110	405.98	418.98	1.6438	1.1607	5.9745	100.40	17.255	2.0810e-05	0.038336	
369.37	3.6805	2.7826	0.35937	405.86	418.83	1.6434	1.1617	6.0714	100.27	17.231	2.0872e-05	0.038545	
369.46	3.6872	2.7961	0.35764	405.75	418.67	1.6429	1.1627	6.1719	100.14	17.207	2.0936e-05	0.038758	
369.55	3.6940	2.8097	0.35591	405.63	418.51	1.6424	1.1638	6.2762	100.02	17.182	2.1000e-05	0.038976	
369.64	3.7007	2.8235	0.35417	405.51	418.35	1.6419	1.1648	6.3844	99.887	17.157	2.1065e-05	0.039198	
369.73	3.7075	2.8375	0.35243	405.38	418.19	1.6414	1.1658	6.4969	99.759	17.131	2.1131e-05	0.039425	
369.82	3.7143	2.8516	0.35068	405.26	418.02	1.6409	1.1669	6.6138	99.630	17.105	2.1198e-05	0.039657	
369.91	3.7210	2.8659	0.34893	405.13	417.85	1.6404	1.1680	6.7354	99.501	17.078	2.1267e-05	0.039894	
370.00	3.7278	2.8804	0.34717	405.00	417.68	1.6398	1.1690	6.8620	99.371	17.050	2.1336e-05	0.040137	
370.09	3.7346	2.8952	0.34540	404.86	417.51	1.6393	1.1701	6.9940	99.240	17.022	2.1407e-05	0.040385	
370.18	3.7413	2.9101	0.34364	404.73	417.33	1.6387	1.1712	7.1317	99.109	16.993	2.1479e-05	0.040640	
370.27	3.7481	2.9252	0.34186	404.59	417.15	1.6382	1.1723	7.2754	98.977	16.964	2.1552e-05	0.040901	
370.36	3.7549	2.9405	0.34008	404.45	416.96	1.6376	1.1734	7.4256	98.845	16.934	2.1626e-05	0.041169	
370.45	3.7616	2.9561	0.33828	404.30	416.77	1.6371	1.1745	7.5827	98.712	16.903	2.1702e-05	0.041443	
370.54	3.7684	2.9719	0.33649	404.15	416.58	1.6365	1.1757	7.7473	98.578	16.872	2.1779e-05	0.041725	
370.63	3.7752	2.9879	0.33468	404.00	416.38	1.6359	1.1768	7.9198	98.444	16.840	2.1858e-05	0.042015	
370.72	3.7819	3.0042	0.33286	403.85	416.18	1.6353	1.1780	8.1008	98.309	16.807	2.1939e-05	0.042313	
370.80	3.7887	3.0208	0.33104	403.69	415.98	1.6347	1.1791	8.2910	98.173	16.773	2.2021e-05	0.042620	
370.89	3.7955	3.0377	0.32920	403.53	415.77	1.6341	1.1803	8.4912	98.037	16.738	2.2104e-05	0.042936	
370.98	3.8022	3.0548	0.32735	403.36	415.56	1.6334	1.1815	8.7020	97.899	16.703	2.2190e-05	0.043262	
371.07	3.8090	3.0722	0.32550	403.19	415.34	1.6328	1.1827	8.9245	97.761	16.667	2.2277e-05	0.043598	
371.16	3.8157	3.0900	0.32363	403.02	415.12	1.6321	1.1839	9.1595	97.622	16.629	2.2366e-05	0.043945	
371.24	3.8225	3.1081	0.32174	402.84	414.89	1.6315	1.1852	9.4082	97.482	16.591	2.2458e-05	0.044304	
371.33	3.8293	3.1265	0.31984	402.66	414.66	1.6308	1.1864	9.6719	97.340	16.551	2.2551e-05	0.044676	
371.42	3.8360	3.1453	0.31793	402.47	414.42	1.6301	1.1877	9.9518	97.198	16.511	2.2647e-05	0.045061	
371.51	3.8428	3.1645	0.31601	402.28	414.18	1.6294	1.1890	10.250	97.055	16.469	2.2745e-05	0.045460	
371.59	3.8496	3.1841	0.31406	402.08	413.93	1.6286	1.1903	10.567	96.911	16.426	2.2846e-05	0.045876	
371.68	3.8563	3.2041	0.31210	401.88	413.67	1.6279	1.1916	10.906	96.765	16.382	2.2950e-05	0.046307	
371.77	3.8631	3.2246	0.31012	401.67	413.41	1.6271	1.1929	11.269	96.618	16.336	2.3056e-05	0.046758	
371.86	3.8699	3.2456	0.30811	401.45	413.14	1.6264	1.1943	11.659	96.470	16.289	2.3166e-05	0.047227	
371.94	3.8766	3.2670	0.30609	401.23	412.86	1.6256	1.1956	12.078	96.320	16.241	2.3278e-05	0.047718	
372.03	3.8834	3.2890	0.30404	401.00	412.57	1.6247	1.1970	12.530	96.168	16.191	2.3394e-05	0.048233	
372.12	3.8902	3.3116	0.30197	400.77	412.28	1.6239	1.1984	13.019	96.015	16.139	2.3514e-05	0.048773	
372.20	3.8969	3.3349	0.29986	400.52	411.98	1.6230	1.1999	13.550	95.860	16.085	2.3638e-05	0.049341	
372.29	3.9037	3.3588	0.29773	400.27	411.66	1.6221	1.2013	14.129	95.704	16.029	2.3766e-05	0.049940	
372.37	3.9105	3.3834	0.29556	400.01	411.34	1.6212	1.2028	14.762	95.545	15.971	2.3899e-05	0.050573	
372.46	3.9172	3.4087	0.29336	399.74	411.00	1.6202	1.2044	15.457	95.384	15.911	2.4036e-05	0.051244	
372.54	3.9240	3.4350	0.29112	399.46	410.65	1.6193	1.2059	16.223	95.220	15.848	2.4179e-05	0.051958	
372.63	3.9307	3.4621	0.28884	399.17	410.29	1.6182	1.2075	17.073	95.054	15.783	2.4328e-05	0.052721	
372.71	3.9375	3.4903	0.28651	398.86	409.92	1.6172	1.2091	18.021	94.885	15.714	2.4484e-05	0.053537	
372.80	3.9443	3.5195	0.28413	398.54	409.52	1.6161	1.2108	19.084	94.713	15.643	2.4647e-05	0.054416	
372.88	3.9510	3.5500	0.28169	398.21	409.11	1.6149	1.2124	20.285	94.537	15.568	2.4818e-05	0.055366	
372.97	3.9578	3.5818	0.27919	397.86	408.69	1.6137	1.2142	21.652	94.357	15.489	2.4997e-05	0.056399	
373.05	3.9646	3.6152	0.27661	397.49	408.23	1.6125	1.2159	23.222	94.173	15.406	2.5187e-05	0.057528	
373.14	3.9713	3.6503	0.27395	397.10	407.76	1.6111	1.2178	25.044	93.984	15.317	2.5388e-05	0.058773	
373.22	3.9781	3.6873	0.27120	396.68	407.26	1.6097	1.2196	27.182	93.790	15.224	2.5603e-05	0.060156	
373.30	3.9849	3.7265	0.26835	396.24	406.72	1.6083	1.2216	29.727	93.589	15.124	2.5832e-05	0.061706	
373.39	3.9916	3.7684	0.26536	395.77	406.15	1.6067	1.2235	32.804	93.381	15.017	2.6079e-05	0.063466	
373.47	3.9984	3.8134	0.26223	395.26	405.53	1.6050	1.2256	36.599	93.165	14.901	2.6347e-05	0.065489	
373.56	4.0052	3.8621	0.25892	394.70	404.87	1.6031	1.2277	41.392	92.938	14.775	2.6640e-05	0.067857	
373.64	4.0119	3.9154	0.25540	394.09	404.13	1.6011	1.2300	47.629	92.700	14.637	2.6965e-05	0.070685	
373.72	4.0187	3.9745	0.25160	393.41	403.32	1.5989	1.2323	56.062	92.445	14.483	2.7330e-05	0.074159	
373.80	4.0255	4.0413	0.24745	392.65	402.41	1.5964	1.2347	68.070	92.172	14.310	2.7749e-05	0.078586	
373.89	4.0322	4.1186	0.24280	391.76	401.35	1.5936	1.2372	86.457	91.872	14.109	2.8241e-05	0.084525	
373.97	4.0390	4.2114	0.23745	390.69	400.09	1.5901	1.2399	117.90	91.536	13.869	2.8846e-05	0.093144	
374.05	4.0458	4.3303	0.23093	389.32	398.48	1.5858	1.2426	182.89	91.143	13.566	2.9639e-05	0.10745	
374.13	4.0525	4.5032	0.22207	387.35	396.17	1.5796	0	0	0	13.134	3.0834e-05	0	
374.21	4.0591	5.0171	0.19932	381.71	389.64	1.5621	0	0	0	11.931	0	0	 

];
t2=data2(:,1);
p2=data2(:,2);
h2=data2(:,6);
s2=data2(:,7);


