function [t,s,h,cp]=R134aisop_22
data=[
170.80	2.2000	15.595	0.064122	72.191	73.573	0.41694	0.79251	1.1823	1123.2	-0.38241	0.0021443	0.14535	
171.28	2.2000	15.583	0.064172	72.752	74.135	0.42022	0.79235	1.1823	1120.8	-0.38212	0.0021014	0.14506	
171.75	2.2000	15.571	0.064222	73.312	74.697	0.42350	0.79221	1.1824	1118.4	-0.38182	0.0020601	0.14477	
172.23	2.2000	15.559	0.064272	73.873	75.259	0.42677	0.79208	1.1824	1116.0	-0.38151	0.0020203	0.14448	
172.70	2.2000	15.547	0.064323	74.434	75.821	0.43003	0.79197	1.1825	1113.6	-0.38120	0.0019818	0.14420	
173.18	2.2000	15.534	0.064373	74.995	76.383	0.43327	0.79187	1.1826	1111.2	-0.38088	0.0019447	0.14391	
173.65	2.2000	15.522	0.064424	75.556	76.945	0.43652	0.79179	1.1827	1108.8	-0.38055	0.0019087	0.14362	
174.13	2.2000	15.510	0.064475	76.117	77.507	0.43975	0.79172	1.1828	1106.5	-0.38022	0.0018740	0.14334	
174.60	2.2000	15.498	0.064525	76.678	78.069	0.44297	0.79166	1.1830	1104.1	-0.37988	0.0018404	0.14305	
175.08	2.2000	15.486	0.064576	77.239	78.632	0.44619	0.79162	1.1831	1101.7	-0.37953	0.0018078	0.14276	
175.55	2.2000	15.473	0.064627	77.800	79.194	0.44940	0.79159	1.1833	1099.3	-0.37918	0.0017762	0.14248	
176.03	2.2000	15.461	0.064678	78.362	79.756	0.45260	0.79158	1.1834	1096.9	-0.37882	0.0017457	0.14220	
176.50	2.2000	15.449	0.064729	78.923	80.319	0.45579	0.79157	1.1836	1094.5	-0.37846	0.0017160	0.14191	
176.98	2.2000	15.437	0.064781	79.485	80.881	0.45897	0.79158	1.1838	1092.1	-0.37809	0.0016872	0.14163	
177.45	2.2000	15.424	0.064832	80.046	81.444	0.46214	0.79160	1.1840	1089.7	-0.37771	0.0016593	0.14135	
177.93	2.2000	15.412	0.064884	80.608	82.007	0.46531	0.79164	1.1842	1087.3	-0.37733	0.0016321	0.14107	
178.40	2.2000	15.400	0.064935	81.170	82.570	0.46847	0.79168	1.1845	1084.9	-0.37695	0.0016058	0.14078	
178.88	2.2000	15.388	0.064987	81.731	83.133	0.47162	0.79174	1.1847	1082.5	-0.37655	0.0015801	0.14050	
179.35	2.2000	15.375	0.065039	82.293	83.696	0.47477	0.79180	1.1850	1080.1	-0.37615	0.0015552	0.14022	
179.83	2.2000	15.363	0.065090	82.855	84.259	0.47790	0.79188	1.1852	1077.7	-0.37575	0.0015310	0.13994	
180.31	2.2000	15.351	0.065142	83.418	84.822	0.48103	0.79197	1.1855	1075.3	-0.37534	0.0015074	0.13966	
180.78	2.2000	15.339	0.065195	83.980	85.386	0.48415	0.79206	1.1858	1073.0	-0.37493	0.0014844	0.13939	
181.26	2.2000	15.326	0.065247	84.543	85.949	0.48726	0.79217	1.1860	1070.6	-0.37451	0.0014620	0.13911	
181.73	2.2000	15.314	0.065299	85.105	86.513	0.49037	0.79229	1.1863	1068.2	-0.37408	0.0014402	0.13883	
182.21	2.2000	15.302	0.065351	85.668	87.077	0.49347	0.79241	1.1867	1065.8	-0.37365	0.0014190	0.13855	
182.68	2.2000	15.290	0.065404	86.231	87.641	0.49656	0.79255	1.1870	1063.4	-0.37322	0.0013983	0.13828	
183.16	2.2000	15.277	0.065457	86.794	88.205	0.49965	0.79269	1.1873	1061.0	-0.37278	0.0013781	0.13800	
183.63	2.2000	15.265	0.065509	87.357	88.770	0.50272	0.79284	1.1876	1058.6	-0.37233	0.0013584	0.13772	
184.11	2.2000	15.253	0.065562	87.920	89.334	0.50579	0.79301	1.1880	1056.3	-0.37188	0.0013392	0.13745	
184.58	2.2000	15.240	0.065615	88.484	89.899	0.50886	0.79317	1.1883	1053.9	-0.37142	0.0013204	0.13718	
185.06	2.2000	15.228	0.065668	89.048	90.464	0.51191	0.79335	1.1887	1051.5	-0.37096	0.0013021	0.13690	
185.53	2.2000	15.216	0.065721	89.611	91.029	0.51496	0.79354	1.1890	1049.1	-0.37050	0.0012842	0.13663	
186.01	2.2000	15.203	0.065774	90.175	91.594	0.51800	0.79373	1.1894	1046.7	-0.37003	0.0012667	0.13635	
186.48	2.2000	15.191	0.065828	90.740	92.159	0.52104	0.79393	1.1898	1044.4	-0.36955	0.0012496	0.13608	
186.96	2.2000	15.179	0.065881	91.304	92.725	0.52407	0.79414	1.1902	1042.0	-0.36907	0.0012330	0.13581	
187.43	2.2000	15.166	0.065935	91.869	93.290	0.52709	0.79436	1.1906	1039.6	-0.36859	0.0012166	0.13554	
187.91	2.2000	15.154	0.065989	92.433	93.856	0.53011	0.79458	1.1910	1037.2	-0.36810	0.0012007	0.13527	
188.38	2.2000	15.142	0.066042	92.998	94.422	0.53311	0.79481	1.1914	1034.9	-0.36761	0.0011851	0.13500	
188.86	2.2000	15.129	0.066096	93.563	94.989	0.53612	0.79504	1.1918	1032.5	-0.36711	0.0011698	0.13473	
189.34	2.2000	15.117	0.066150	94.129	95.555	0.53911	0.79529	1.1922	1030.1	-0.36661	0.0011549	0.13446	
189.81	2.2000	15.105	0.066205	94.694	96.122	0.54210	0.79554	1.1927	1027.8	-0.36610	0.0011403	0.13419	
190.29	2.2000	15.092	0.066259	95.260	96.689	0.54508	0.79579	1.1931	1025.4	-0.36559	0.0011259	0.13393	
190.76	2.2000	15.080	0.066313	95.826	97.256	0.54806	0.79605	1.1935	1023.0	-0.36507	0.0011119	0.13366	
191.24	2.2000	15.068	0.066368	96.392	97.823	0.55103	0.79632	1.1940	1020.7	-0.36455	0.0010982	0.13339	
191.71	2.2000	15.055	0.066422	96.959	98.391	0.55400	0.79659	1.1944	1018.3	-0.36402	0.0010848	0.13312	
192.19	2.2000	15.043	0.066477	97.525	98.959	0.55695	0.79687	1.1949	1015.9	-0.36349	0.0010716	0.13286	
192.66	2.2000	15.030	0.066532	98.092	99.527	0.55991	0.79716	1.1954	1013.6	-0.36296	0.0010587	0.13259	
193.14	2.2000	15.018	0.066587	98.659	100.09	0.56285	0.79745	1.1958	1011.2	-0.36242	0.0010460	0.13233	
193.61	2.2000	15.006	0.066642	99.226	100.66	0.56579	0.79774	1.1963	1008.9	-0.36188	0.0010336	0.13206	
194.09	2.2000	14.993	0.066697	99.794	101.23	0.56872	0.79804	1.1968	1006.5	-0.36133	0.0010215	0.13180	
194.56	2.2000	14.981	0.066753	100.36	101.80	0.57165	0.79835	1.1973	1004.2	-0.36078	0.0010095	0.13153	
195.04	2.2000	14.968	0.066808	100.93	102.37	0.57457	0.79866	1.1978	1001.8	-0.36022	0.00099784	0.13127	
195.51	2.2000	14.956	0.066864	101.50	102.94	0.57749	0.79897	1.1983	999.47	-0.35966	0.00098637	0.13101	
195.99	2.2000	14.943	0.066919	102.07	103.51	0.58040	0.79929	1.1988	997.13	-0.35910	0.00097511	0.13075	
196.46	2.2000	14.931	0.066975	102.63	104.08	0.58330	0.79962	1.1993	994.78	-0.35853	0.00096406	0.13048	
196.94	2.2000	14.918	0.067031	103.20	104.65	0.58620	0.79995	1.1998	992.44	-0.35795	0.00095322	0.13022	
197.41	2.2000	14.906	0.067087	103.77	105.22	0.58909	0.80028	1.2003	990.10	-0.35737	0.00094258	0.12996	
197.89	2.2000	14.893	0.067143	104.34	105.79	0.59198	0.80062	1.2008	987.77	-0.35679	0.00093213	0.12970	
198.36	2.2000	14.881	0.067200	104.91	106.36	0.59486	0.80096	1.2014	985.43	-0.35620	0.00092187	0.12944	
198.84	2.2000	14.869	0.067256	105.48	106.93	0.59774	0.80130	1.2019	983.10	-0.35561	0.00091180	0.12918	
199.32	2.2000	14.856	0.067313	106.05	107.50	0.60061	0.80165	1.2024	980.76	-0.35502	0.00090190	0.12892	
199.79	2.2000	14.844	0.067370	106.62	108.07	0.60347	0.80201	1.2030	978.43	-0.35442	0.00089218	0.12866	
200.27	2.2000	14.831	0.067426	107.19	108.65	0.60633	0.80237	1.2035	976.10	-0.35381	0.00088263	0.12841	
200.74	2.2000	14.818	0.067483	107.76	109.22	0.60918	0.80273	1.2041	973.78	-0.35320	0.00087325	0.12815	
201.22	2.2000	14.806	0.067540	108.33	109.79	0.61203	0.80309	1.2046	971.45	-0.35259	0.00086403	0.12789	
201.69	2.2000	14.793	0.067598	108.91	110.36	0.61487	0.80346	1.2052	969.13	-0.35197	0.00085496	0.12763	
202.17	2.2000	14.781	0.067655	109.48	110.94	0.61771	0.80384	1.2057	966.81	-0.35135	0.00084605	0.12738	
202.64	2.2000	14.768	0.067713	110.05	111.51	0.62054	0.80421	1.2063	964.49	-0.35073	0.00083729	0.12712	
203.12	2.2000	14.756	0.067770	110.62	112.08	0.62337	0.80459	1.2069	962.18	-0.35010	0.00082868	0.12687	
203.59	2.2000	14.743	0.067828	111.19	112.66	0.62619	0.80497	1.2075	959.86	-0.34946	0.00082021	0.12661	
204.07	2.2000	14.731	0.067886	111.77	113.23	0.62901	0.80536	1.2080	957.55	-0.34882	0.00081188	0.12636	
204.54	2.2000	14.718	0.067944	112.34	113.80	0.63182	0.80575	1.2086	955.24	-0.34818	0.00080368	0.12610	
205.02	2.2000	14.705	0.068002	112.91	114.38	0.63462	0.80614	1.2092	952.93	-0.34753	0.00079562	0.12585	
205.49	2.2000	14.693	0.068060	113.49	114.95	0.63742	0.80654	1.2098	950.62	-0.34688	0.00078769	0.12560	
205.97	2.2000	14.680	0.068119	114.06	115.53	0.64022	0.80694	1.2104	948.32	-0.34622	0.00077989	0.12534	
206.44	2.2000	14.668	0.068177	114.63	116.10	0.64301	0.80734	1.2110	946.01	-0.34556	0.00077221	0.12509	
206.92	2.2000	14.655	0.068236	115.21	116.68	0.64579	0.80774	1.2116	943.71	-0.34489	0.00076465	0.12484	
207.39	2.2000	14.642	0.068295	115.78	117.26	0.64857	0.80815	1.2122	941.41	-0.34422	0.00075721	0.12459	
207.87	2.2000	14.630	0.068354	116.36	117.83	0.65135	0.80856	1.2128	939.12	-0.34355	0.00074989	0.12434	
208.35	2.2000	14.617	0.068413	116.93	118.41	0.65412	0.80897	1.2134	936.82	-0.34287	0.00074268	0.12409	
208.82	2.2000	14.604	0.068472	117.51	118.99	0.65688	0.80938	1.2141	934.53	-0.34218	0.00073558	0.12383	
209.30	2.2000	14.592	0.068532	118.09	119.56	0.65965	0.80980	1.2147	932.24	-0.34149	0.00072859	0.12359	
209.77	2.2000	14.579	0.068591	118.66	120.14	0.66240	0.81022	1.2153	929.95	-0.34080	0.00072171	0.12334	
210.25	2.2000	14.566	0.068651	119.24	120.72	0.66515	0.81064	1.2159	927.66	-0.34010	0.00071493	0.12309	
210.72	2.2000	14.554	0.068711	119.81	121.30	0.66790	0.81107	1.2166	925.37	-0.33940	0.00070825	0.12284	
211.20	2.2000	14.541	0.068771	120.39	121.87	0.67064	0.81150	1.2172	923.09	-0.33869	0.00070167	0.12259	
211.67	2.2000	14.528	0.068831	120.97	122.45	0.67338	0.81193	1.2178	920.81	-0.33798	0.00069518	0.12234	
212.15	2.2000	14.516	0.068892	121.55	123.03	0.67611	0.81236	1.2185	918.53	-0.33726	0.00068880	0.12210	
212.62	2.2000	14.503	0.068952	122.12	123.61	0.67884	0.81279	1.2191	916.25	-0.33654	0.00068250	0.12185	
213.10	2.2000	14.490	0.069013	122.70	124.19	0.68156	0.81323	1.2198	913.97	-0.33582	0.00067630	0.12160	
213.57	2.2000	14.477	0.069073	123.28	124.77	0.68428	0.81367	1.2204	911.70	-0.33509	0.00067019	0.12136	
214.05	2.2000	14.465	0.069134	123.86	125.35	0.68699	0.81411	1.2211	909.43	-0.33435	0.00066416	0.12111	
214.52	2.2000	14.452	0.069195	124.44	125.93	0.68970	0.81455	1.2217	907.16	-0.33361	0.00065822	0.12086	
215.00	2.2000	14.439	0.069257	125.02	126.51	0.69240	0.81500	1.2224	904.89	-0.33286	0.00065236	0.12062	
215.47	2.2000	14.426	0.069318	125.60	127.09	0.69510	0.81544	1.2231	902.62	-0.33211	0.00064659	0.12038	
215.95	2.2000	14.413	0.069380	126.18	127.67	0.69780	0.81589	1.2237	900.36	-0.33136	0.00064090	0.12013	
216.42	2.2000	14.401	0.069441	126.76	128.26	0.70049	0.81634	1.2244	898.10	-0.33060	0.00063528	0.11989	
216.90	2.2000	14.388	0.069503	127.34	128.84	0.70318	0.81679	1.2251	895.84	-0.32983	0.00062975	0.11964	
217.37	2.2000	14.375	0.069565	127.92	129.42	0.70586	0.81725	1.2257	893.58	-0.32906	0.00062429	0.11940	
217.85	2.2000	14.362	0.069627	128.50	130.00	0.70854	0.81771	1.2264	891.32	-0.32829	0.00061890	0.11916	
218.33	2.2000	14.349	0.069690	129.08	130.59	0.71121	0.81816	1.2271	889.07	-0.32751	0.00061359	0.11892	
218.80	2.2000	14.336	0.069752	129.67	131.17	0.71388	0.81862	1.2278	886.81	-0.32672	0.00060834	0.11868	
219.28	2.2000	14.324	0.069815	130.25	131.75	0.71654	0.81908	1.2285	884.56	-0.32593	0.00060317	0.11843	
219.75	2.2000	14.311	0.069878	130.83	132.34	0.71920	0.81955	1.2292	882.31	-0.32513	0.00059807	0.11819	
220.23	2.2000	14.298	0.069941	131.41	132.92	0.72186	0.82001	1.2299	880.06	-0.32433	0.00059303	0.11795	
220.70	2.2000	14.285	0.070004	132.00	133.51	0.72451	0.82048	1.2306	877.82	-0.32352	0.00058806	0.11771	
221.18	2.2000	14.272	0.070067	132.58	134.09	0.72716	0.82095	1.2313	875.57	-0.32271	0.00058316	0.11747	
221.65	2.2000	14.259	0.070131	133.16	134.68	0.72980	0.82142	1.2320	873.33	-0.32189	0.00057832	0.11723	
222.13	2.2000	14.246	0.070195	133.75	135.26	0.73244	0.82189	1.2327	871.09	-0.32107	0.00057354	0.11700	
222.60	2.2000	14.233	0.070259	134.33	135.85	0.73508	0.82236	1.2334	868.85	-0.32024	0.00056882	0.11676	
223.08	2.2000	14.220	0.070323	134.92	136.43	0.73771	0.82284	1.2341	866.61	-0.31941	0.00056417	0.11652	
223.55	2.2000	14.207	0.070387	135.50	137.02	0.74034	0.82331	1.2349	864.38	-0.31857	0.00055957	0.11628	
224.03	2.2000	14.194	0.070451	136.09	137.61	0.74296	0.82379	1.2356	862.14	-0.31772	0.00055503	0.11604	
224.50	2.2000	14.181	0.070516	136.68	138.20	0.74558	0.82427	1.2363	859.91	-0.31687	0.00055055	0.11581	
224.98	2.2000	14.168	0.070581	137.26	138.78	0.74819	0.82475	1.2370	857.68	-0.31602	0.00054612	0.11557	
225.45	2.2000	14.155	0.070645	137.85	139.37	0.75080	0.82523	1.2378	855.45	-0.31515	0.00054175	0.11533	
225.93	2.2000	14.142	0.070711	138.44	139.96	0.75341	0.82571	1.2385	853.22	-0.31428	0.00053743	0.11510	
226.40	2.2000	14.129	0.070776	139.02	140.55	0.75601	0.82620	1.2392	851.00	-0.31341	0.00053316	0.11486	
226.88	2.2000	14.116	0.070841	139.61	141.14	0.75861	0.82668	1.2400	848.77	-0.31253	0.00052895	0.11463	
227.36	2.2000	14.103	0.070907	140.20	141.73	0.76121	0.82717	1.2407	846.55	-0.31164	0.00052479	0.11439	
227.83	2.2000	14.090	0.070973	140.79	142.32	0.76380	0.82766	1.2415	844.33	-0.31075	0.00052068	0.11416	
228.31	2.2000	14.077	0.071039	141.38	142.91	0.76639	0.82815	1.2422	842.11	-0.30985	0.00051662	0.11392	
228.78	2.2000	14.064	0.071105	141.96	143.50	0.76897	0.82864	1.2430	839.89	-0.30895	0.00051260	0.11369	
229.26	2.2000	14.051	0.071172	142.55	144.09	0.77155	0.82913	1.2437	837.68	-0.30804	0.00050864	0.11346	
229.73	2.2000	14.037	0.071238	143.14	144.68	0.77413	0.82962	1.2445	835.46	-0.30712	0.00050472	0.11322	
230.21	2.2000	14.024	0.071305	143.73	145.27	0.77670	0.83012	1.2452	833.25	-0.30620	0.00050084	0.11299	
230.68	2.2000	14.011	0.071372	144.32	145.86	0.77927	0.83061	1.2460	831.04	-0.30527	0.00049702	0.11276	
231.16	2.2000	13.998	0.071439	144.92	146.46	0.78184	0.83111	1.2468	828.83	-0.30433	0.00049323	0.11253	
231.63	2.2000	13.985	0.071506	145.51	147.05	0.78440	0.83161	1.2476	826.62	-0.30339	0.00048949	0.11229	
232.11	2.2000	13.972	0.071574	146.10	147.64	0.78696	0.83210	1.2483	824.41	-0.30244	0.00048580	0.11206	
232.58	2.2000	13.958	0.071642	146.69	148.24	0.78951	0.83260	1.2491	822.21	-0.30149	0.00048214	0.11183	
233.06	2.2000	13.945	0.071710	147.28	148.83	0.79206	0.83311	1.2499	820.00	-0.30052	0.00047853	0.11160	
233.53	2.2000	13.932	0.071778	147.88	149.42	0.79461	0.83361	1.2507	817.80	-0.29955	0.00047496	0.11137	
234.01	2.2000	13.919	0.071846	148.47	150.02	0.79715	0.83411	1.2515	815.60	-0.29858	0.00047142	0.11114	
234.48	2.2000	13.905	0.071915	149.06	150.61	0.79969	0.83462	1.2523	813.40	-0.29760	0.00046793	0.11091	
234.96	2.2000	13.892	0.071984	149.66	151.21	0.80223	0.83512	1.2531	811.20	-0.29661	0.00046448	0.11068	
235.43	2.2000	13.879	0.072053	150.25	151.80	0.80476	0.83563	1.2539	809.01	-0.29561	0.00046106	0.11045	
235.91	2.2000	13.865	0.072122	150.85	152.40	0.80729	0.83614	1.2547	806.81	-0.29461	0.00045768	0.11023	
236.38	2.2000	13.852	0.072191	151.44	153.00	0.80981	0.83665	1.2555	804.62	-0.29359	0.00045434	0.11000	
236.86	2.2000	13.839	0.072261	152.04	153.59	0.81234	0.83716	1.2563	802.42	-0.29258	0.00045104	0.10977	
237.34	2.2000	13.825	0.072331	152.63	154.19	0.81486	0.83767	1.2571	800.23	-0.29155	0.00044777	0.10954	
237.81	2.2000	13.812	0.072401	153.23	154.79	0.81737	0.83818	1.2579	798.04	-0.29052	0.00044453	0.10931	
238.29	2.2000	13.799	0.072471	153.82	155.39	0.81988	0.83869	1.2587	795.85	-0.28948	0.00044134	0.10909	
238.76	2.2000	13.785	0.072542	154.42	155.98	0.82239	0.83920	1.2596	793.67	-0.28843	0.00043817	0.10886	
239.24	2.2000	13.772	0.072612	155.02	156.58	0.82490	0.83972	1.2604	791.48	-0.28737	0.00043504	0.10863	
239.71	2.2000	13.758	0.072683	155.62	157.18	0.82740	0.84024	1.2612	789.29	-0.28631	0.00043194	0.10841	
240.19	2.2000	13.745	0.072755	156.21	157.78	0.82990	0.84075	1.2620	787.11	-0.28524	0.00042887	0.10818	
240.66	2.2000	13.731	0.072826	156.81	158.38	0.83239	0.84127	1.2629	784.93	-0.28416	0.00042584	0.10796	
241.14	2.2000	13.718	0.072898	157.41	158.98	0.83489	0.84179	1.2637	782.75	-0.28307	0.00042284	0.10773	
241.61	2.2000	13.704	0.072969	158.01	159.58	0.83738	0.84231	1.2646	780.57	-0.28198	0.00041987	0.10751	
242.09	2.2000	13.691	0.073041	158.61	160.18	0.83986	0.84283	1.2654	778.39	-0.28087	0.00041693	0.10728	
242.56	2.2000	13.677	0.073114	159.21	160.79	0.84234	0.84335	1.2663	776.21	-0.27976	0.00041402	0.10706	
243.04	2.2000	13.664	0.073186	159.81	161.39	0.84482	0.84387	1.2671	774.03	-0.27864	0.00041114	0.10683	
243.51	2.2000	13.650	0.073259	160.41	161.99	0.84730	0.84440	1.2680	771.86	-0.27752	0.00040828	0.10661	
243.99	2.2000	13.637	0.073332	161.01	162.59	0.84977	0.84492	1.2689	769.68	-0.27638	0.00040546	0.10639	
244.46	2.2000	13.623	0.073405	161.61	163.20	0.85224	0.84545	1.2697	767.51	-0.27523	0.00040267	0.10616	
244.94	2.2000	13.609	0.073479	162.22	163.80	0.85471	0.84597	1.2706	765.33	-0.27408	0.00039990	0.10594	
245.41	2.2000	13.596	0.073553	162.82	164.40	0.85717	0.84650	1.2715	763.16	-0.27292	0.00039716	0.10572	
245.89	2.2000	13.582	0.073627	163.42	165.01	0.85963	0.84703	1.2724	760.99	-0.27175	0.00039445	0.10550	
246.37	2.2000	13.568	0.073701	164.02	165.61	0.86209	0.84756	1.2732	758.82	-0.27057	0.00039176	0.10528	
246.84	2.2000	13.555	0.073775	164.63	166.22	0.86455	0.84809	1.2741	756.65	-0.26938	0.00038910	0.10505	
247.32	2.2000	13.541	0.073850	165.23	166.82	0.86700	0.84862	1.2750	754.49	-0.26818	0.00038647	0.10483	
247.79	2.2000	13.527	0.073925	165.84	167.43	0.86945	0.84915	1.2759	752.32	-0.26697	0.00038386	0.10461	
248.27	2.2000	13.513	0.074000	166.44	168.04	0.87189	0.84968	1.2768	750.15	-0.26575	0.00038128	0.10439	
248.74	2.2000	13.500	0.074076	167.05	168.64	0.87433	0.85021	1.2777	747.99	-0.26453	0.00037872	0.10417	
249.22	2.2000	13.486	0.074152	167.65	169.25	0.87677	0.85075	1.2786	745.83	-0.26329	0.00037619	0.10395	
249.69	2.2000	13.472	0.074228	168.26	169.86	0.87921	0.85128	1.2795	743.66	-0.26204	0.00037368	0.10373	
250.17	2.2000	13.458	0.074304	168.87	170.47	0.88165	0.85182	1.2805	741.50	-0.26079	0.00037119	0.10351	
250.64	2.2000	13.444	0.074381	169.47	171.08	0.88408	0.85236	1.2814	739.34	-0.25952	0.00036873	0.10329	
251.12	2.2000	13.431	0.074457	170.08	171.69	0.88650	0.85289	1.2823	737.18	-0.25825	0.00036629	0.10307	
251.59	2.2000	13.417	0.074534	170.69	172.30	0.88893	0.85343	1.2832	735.02	-0.25696	0.00036387	0.10285	
252.07	2.2000	13.403	0.074612	171.30	172.91	0.89135	0.85397	1.2842	732.86	-0.25566	0.00036147	0.10264	
252.54	2.2000	13.389	0.074690	171.91	173.52	0.89377	0.85451	1.2851	730.70	-0.25436	0.00035910	0.10242	
253.02	2.2000	13.375	0.074767	172.52	174.13	0.89619	0.85505	1.2861	728.54	-0.25304	0.00035675	0.10220	
253.49	2.2000	13.361	0.074846	173.13	174.74	0.89860	0.85559	1.2870	726.39	-0.25171	0.00035442	0.10198	
253.97	2.2000	13.347	0.074924	173.74	175.35	0.90102	0.85614	1.2880	724.23	-0.25037	0.00035211	0.10176	
254.44	2.2000	13.333	0.075003	174.35	175.96	0.90342	0.85668	1.2889	722.07	-0.24902	0.00034982	0.10155	
254.92	2.2000	13.319	0.075082	174.96	176.58	0.90583	0.85723	1.2899	719.92	-0.24766	0.00034756	0.10133	
255.39	2.2000	13.305	0.075161	175.57	177.19	0.90823	0.85777	1.2909	717.77	-0.24629	0.00034531	0.10111	
255.87	2.2000	13.291	0.075241	176.18	177.80	0.91063	0.85832	1.2918	715.61	-0.24491	0.00034308	0.10090	
256.35	2.2000	13.277	0.075321	176.79	178.42	0.91303	0.85886	1.2928	713.46	-0.24351	0.00034087	0.10068	
256.82	2.2000	13.262	0.075401	177.41	179.03	0.91543	0.85941	1.2938	711.31	-0.24211	0.00033869	0.10046	
257.30	2.2000	13.248	0.075482	178.02	179.65	0.91782	0.85996	1.2948	709.15	-0.24069	0.00033652	0.10025	
257.77	2.2000	13.234	0.075563	178.63	180.26	0.92021	0.86051	1.2958	707.00	-0.23926	0.00033437	0.10003	
258.25	2.2000	13.220	0.075644	179.25	180.88	0.92260	0.86106	1.2968	704.85	-0.23782	0.00033224	0.099818	
258.72	2.2000	13.206	0.075725	179.86	181.50	0.92498	0.86161	1.2978	702.70	-0.23636	0.00033012	0.099603	
259.20	2.2000	13.191	0.075807	180.48	182.11	0.92737	0.86216	1.2988	700.55	-0.23490	0.00032803	0.099389	
259.67	2.2000	13.177	0.075889	181.09	182.73	0.92975	0.86272	1.2998	698.40	-0.23342	0.00032595	0.099174	
260.15	2.2000	13.163	0.075971	181.71	183.35	0.93212	0.86327	1.3008	696.25	-0.23193	0.00032389	0.098960	
260.62	2.2000	13.149	0.076054	182.33	183.97	0.93450	0.86383	1.3018	694.11	-0.23042	0.00032185	0.098746	
261.10	2.2000	13.134	0.076137	182.94	184.58	0.93687	0.86438	1.3029	691.96	-0.22890	0.00031982	0.098532	
261.57	2.2000	13.120	0.076220	183.56	185.20	0.93924	0.86494	1.3039	689.81	-0.22737	0.00031782	0.098318	
262.05	2.2000	13.105	0.076304	184.18	185.82	0.94161	0.86550	1.3049	687.66	-0.22583	0.00031583	0.098105	
262.52	2.2000	13.091	0.076388	184.80	186.44	0.94398	0.86605	1.3060	685.51	-0.22427	0.00031385	0.097892	
263.00	2.2000	13.077	0.076473	185.42	187.07	0.94634	0.86661	1.3070	683.37	-0.22270	0.00031189	0.097679	
263.47	2.2000	13.062	0.076557	186.04	187.69	0.94870	0.86717	1.3081	681.22	-0.22111	0.00030995	0.097466	
263.95	2.2000	13.048	0.076642	186.66	188.31	0.95106	0.86773	1.3092	679.08	-0.21952	0.00030802	0.097253	
264.42	2.2000	13.033	0.076728	187.28	188.93	0.95341	0.86830	1.3102	676.93	-0.21790	0.00030611	0.097041	
264.90	2.2000	13.019	0.076813	187.90	189.55	0.95577	0.86886	1.3113	674.78	-0.21627	0.00030422	0.096829	
265.38	2.2000	13.004	0.076899	188.52	190.18	0.95812	0.86942	1.3124	672.64	-0.21463	0.00030234	0.096617	
265.85	2.2000	12.989	0.076986	189.14	190.80	0.96047	0.86999	1.3135	670.49	-0.21297	0.00030047	0.096405	
266.33	2.2000	12.975	0.077073	189.76	191.43	0.96282	0.87055	1.3146	668.35	-0.21130	0.00029862	0.096194	
266.80	2.2000	12.960	0.077160	190.39	192.05	0.96516	0.87112	1.3157	666.20	-0.20962	0.00029679	0.095983	
267.28	2.2000	12.945	0.077247	191.01	192.68	0.96750	0.87169	1.3168	664.06	-0.20791	0.00029496	0.095771	
267.75	2.2000	12.931	0.077335	191.64	193.30	0.96984	0.87225	1.3179	661.91	-0.20619	0.00029316	0.095561	
268.23	2.2000	12.916	0.077423	192.26	193.93	0.97218	0.87282	1.3190	659.77	-0.20446	0.00029136	0.095350	
268.70	2.2000	12.901	0.077512	192.89	194.56	0.97452	0.87339	1.3201	657.62	-0.20271	0.00028959	0.095139	
269.18	2.2000	12.886	0.077601	193.51	195.18	0.97685	0.87396	1.3213	655.48	-0.20094	0.00028782	0.094929	
269.65	2.2000	12.872	0.077690	194.14	195.81	0.97918	0.87453	1.3224	653.33	-0.19916	0.00028607	0.094719	
270.13	2.2000	12.857	0.077780	194.76	196.44	0.98151	0.87511	1.3236	651.19	-0.19736	0.00028433	0.094509	
270.60	2.2000	12.842	0.077870	195.39	197.07	0.98384	0.87568	1.3247	649.04	-0.19554	0.00028260	0.094299	
271.08	2.2000	12.827	0.077961	196.02	197.70	0.98617	0.87626	1.3259	646.90	-0.19371	0.00028089	0.094089	
271.55	2.2000	12.812	0.078052	196.65	198.33	0.98849	0.87683	1.3271	644.75	-0.19186	0.00027919	0.093880	
272.03	2.2000	12.797	0.078143	197.28	198.96	0.99081	0.87741	1.3282	642.60	-0.18999	0.00027751	0.093671	
272.50	2.2000	12.782	0.078235	197.91	199.59	0.99313	0.87798	1.3294	640.46	-0.18810	0.00027583	0.093462	
272.98	2.2000	12.767	0.078327	198.54	200.23	0.99545	0.87856	1.3306	638.31	-0.18620	0.00027417	0.093253	
273.45	2.2000	12.752	0.078420	199.17	200.86	0.99776	0.87914	1.3318	636.17	-0.18427	0.00027252	0.093044	
273.93	2.2000	12.737	0.078513	199.80	201.49	1.0001	0.87972	1.3330	634.02	-0.18233	0.00027088	0.092835	
274.40	2.2000	12.722	0.078606	200.43	202.13	1.0024	0.88030	1.3342	631.87	-0.18037	0.00026926	0.092627	
274.88	2.2000	12.707	0.078700	201.06	202.76	1.0047	0.88089	1.3354	629.73	-0.17839	0.00026765	0.092418	
275.36	2.2000	12.691	0.078794	201.70	203.39	1.0070	0.88147	1.3367	627.58	-0.17639	0.00026604	0.092210	
275.83	2.2000	12.676	0.078889	202.33	204.03	1.0093	0.88205	1.3379	625.43	-0.17437	0.00026445	0.092002	
276.31	2.2000	12.661	0.078984	202.96	204.67	1.0116	0.88264	1.3392	623.28	-0.17233	0.00026287	0.091794	
276.78	2.2000	12.646	0.079079	203.60	205.30	1.0139	0.88323	1.3404	621.14	-0.17027	0.00026131	0.091587	
277.26	2.2000	12.630	0.079175	204.23	205.94	1.0162	0.88381	1.3417	618.99	-0.16819	0.00025975	0.091379	
277.73	2.2000	12.615	0.079272	204.87	206.58	1.0185	0.88440	1.3430	616.84	-0.16608	0.00025820	0.091172	
278.21	2.2000	12.599	0.079369	205.51	207.22	1.0208	0.88499	1.3442	614.69	-0.16396	0.00025667	0.090964	
278.68	2.2000	12.584	0.079466	206.14	207.86	1.0231	0.88558	1.3455	612.54	-0.16181	0.00025514	0.090757	
279.16	2.2000	12.568	0.079564	206.78	208.50	1.0254	0.88617	1.3468	610.39	-0.15965	0.00025363	0.090550	
279.63	2.2000	12.553	0.079662	207.42	209.14	1.0277	0.88676	1.3481	608.24	-0.15746	0.00025213	0.090343	
280.11	2.2000	12.537	0.079761	208.06	209.78	1.0300	0.88736	1.3494	606.08	-0.15524	0.00025063	0.090137	
280.58	2.2000	12.522	0.079861	208.70	210.42	1.0323	0.88795	1.3508	603.93	-0.15301	0.00024915	0.089930	
281.06	2.2000	12.506	0.079960	209.34	211.06	1.0346	0.88855	1.3521	601.78	-0.15075	0.00024768	0.089724	
281.53	2.2000	12.491	0.080061	209.98	211.70	1.0368	0.88914	1.3534	599.62	-0.14847	0.00024622	0.089517	
282.01	2.2000	12.475	0.080161	210.62	212.35	1.0391	0.88974	1.3548	597.47	-0.14616	0.00024476	0.089311	
282.48	2.2000	12.459	0.080263	211.26	212.99	1.0414	0.89034	1.3562	595.31	-0.14383	0.00024332	0.089105	
282.96	2.2000	12.443	0.080365	211.90	213.64	1.0437	0.89094	1.3575	593.16	-0.14147	0.00024188	0.088899	
283.43	2.2000	12.427	0.080467	212.55	214.28	1.0460	0.89154	1.3589	591.00	-0.13909	0.00024046	0.088693	
283.91	2.2000	12.412	0.080570	213.19	214.93	1.0483	0.89215	1.3603	588.84	-0.13668	0.00023904	0.088487	
284.39	2.2000	12.396	0.080673	213.84	215.57	1.0505	0.89275	1.3617	586.68	-0.13425	0.00023764	0.088281	
284.86	2.2000	12.380	0.080777	214.48	216.22	1.0528	0.89335	1.3631	584.52	-0.13179	0.00023624	0.088075	
285.34	2.2000	12.364	0.080881	215.13	216.87	1.0551	0.89396	1.3646	582.36	-0.12930	0.00023485	0.087870	
285.81	2.2000	12.348	0.080986	215.77	217.52	1.0574	0.89457	1.3660	580.20	-0.12678	0.00023347	0.087664	
286.29	2.2000	12.332	0.081092	216.42	218.17	1.0596	0.89518	1.3675	578.04	-0.12424	0.00023210	0.087459	
286.76	2.2000	12.316	0.081198	217.07	218.82	1.0619	0.89578	1.3689	575.87	-0.12167	0.00023074	0.087253	
287.24	2.2000	12.299	0.081305	217.72	219.47	1.0642	0.89640	1.3704	573.71	-0.11907	0.00022939	0.087048	
287.71	2.2000	12.283	0.081412	218.37	220.12	1.0664	0.89701	1.3719	571.54	-0.11644	0.00022804	0.086843	
288.19	2.2000	12.267	0.081520	219.02	220.77	1.0687	0.89762	1.3734	569.37	-0.11378	0.00022671	0.086638	
288.66	2.2000	12.251	0.081628	219.67	221.43	1.0710	0.89824	1.3749	567.21	-0.11109	0.00022538	0.086433	
289.14	2.2000	12.234	0.081737	220.32	222.08	1.0732	0.89885	1.3764	565.04	-0.10837	0.00022406	0.086228	
289.61	2.2000	12.218	0.081847	220.97	222.74	1.0755	0.89947	1.3779	562.87	-0.10562	0.00022275	0.086023	
290.09	2.2000	12.201	0.081957	221.62	223.39	1.0777	0.90009	1.3795	560.69	-0.10284	0.00022144	0.085818	
290.56	2.2000	12.185	0.082068	222.28	224.05	1.0800	0.90071	1.3810	558.52	-0.10002	0.00022015	0.085613	
291.04	2.2000	12.168	0.082180	222.93	224.70	1.0823	0.90133	1.3826	556.35	-0.097172	0.00021886	0.085409	
291.51	2.2000	12.152	0.082292	223.59	225.36	1.0845	0.90195	1.3842	554.17	-0.094289	0.00021758	0.085204	
291.99	2.2000	12.135	0.082405	224.24	226.02	1.0868	0.90257	1.3858	551.99	-0.091372	0.00021631	0.084999	
292.46	2.2000	12.119	0.082518	224.90	226.68	1.0890	0.90320	1.3874	549.81	-0.088420	0.00021504	0.084795	
292.94	2.2000	12.102	0.082632	225.56	227.34	1.0913	0.90382	1.3890	547.63	-0.085433	0.00021378	0.084590	
293.41	2.2000	12.085	0.082747	226.21	228.00	1.0935	0.90445	1.3907	545.45	-0.082410	0.00021253	0.084386	
293.89	2.2000	12.068	0.082862	226.87	228.66	1.0958	0.90508	1.3923	543.26	-0.079350	0.00021129	0.084181	
294.37	2.2000	12.051	0.082978	227.53	229.32	1.0980	0.90571	1.3940	541.08	-0.076253	0.00021005	0.083977	
294.84	2.2000	12.034	0.083095	228.19	229.98	1.1003	0.90634	1.3957	538.89	-0.073117	0.00020882	0.083772	
295.32	2.2000	12.017	0.083213	228.85	230.65	1.1025	0.90698	1.3974	536.70	-0.069943	0.00020760	0.083568	
295.79	2.2000	12.000	0.083331	229.52	231.31	1.1048	0.90761	1.3991	534.51	-0.066729	0.00020638	0.083363	
296.27	2.2000	11.983	0.083450	230.18	231.98	1.1070	0.90825	1.4009	532.32	-0.063475	0.00020518	0.083159	
296.74	2.2000	11.966	0.083570	230.84	232.64	1.1093	0.90889	1.4026	530.13	-0.060180	0.00020397	0.082954	
297.22	2.2000	11.949	0.083690	231.51	233.31	1.1115	0.90953	1.4044	527.93	-0.056843	0.00020278	0.082750	
297.69	2.2000	11.932	0.083811	232.17	233.98	1.1138	0.91017	1.4062	525.73	-0.053464	0.00020159	0.082545	
298.17	2.2000	11.914	0.083933	232.84	234.65	1.1160	0.91081	1.4080	523.53	-0.050041	0.00020041	0.082341	
298.64	2.2000	11.897	0.084056	233.51	235.32	1.1183	0.91145	1.4098	521.33	-0.046574	0.00019923	0.082136	
299.12	2.2000	11.879	0.084179	234.17	235.99	1.1205	0.91210	1.4116	519.12	-0.043062	0.00019806	0.081932	
299.59	2.2000	11.862	0.084304	234.84	236.66	1.1227	0.91275	1.4135	516.92	-0.039504	0.00019690	0.081727	
300.07	2.2000	11.844	0.084429	235.51	237.33	1.1250	0.91340	1.4153	514.71	-0.035899	0.00019574	0.081523	
300.54	2.2000	11.827	0.084555	236.18	238.00	1.1272	0.91405	1.4172	512.50	-0.032247	0.00019459	0.081318	
301.02	2.2000	11.809	0.084681	236.85	238.68	1.1295	0.91470	1.4191	510.28	-0.028545	0.00019344	0.081114	
301.49	2.2000	11.791	0.084809	237.52	239.35	1.1317	0.91535	1.4211	508.07	-0.024794	0.00019230	0.080909	
301.97	2.2000	11.773	0.084937	238.20	240.03	1.1339	0.91601	1.4230	505.85	-0.020992	0.00019117	0.080704	
302.44	2.2000	11.755	0.085067	238.87	240.71	1.1362	0.91667	1.4250	503.63	-0.017139	0.00019004	0.080499	
302.92	2.2000	11.738	0.085197	239.55	241.38	1.1384	0.91733	1.4270	501.41	-0.013232	0.00018892	0.080295	
303.40	2.2000	11.719	0.085328	240.22	242.06	1.1407	0.91799	1.4290	499.18	-0.0092720	0.00018780	0.080090	
303.87	2.2000	11.701	0.085460	240.90	242.74	1.1429	0.91865	1.4310	496.95	-0.0052566	0.00018669	0.079885	
304.35	2.2000	11.683	0.085593	241.58	243.42	1.1451	0.91932	1.4331	494.72	-0.0011850	0.00018559	0.079680	
304.82	2.2000	11.665	0.085727	242.26	244.10	1.1474	0.91998	1.4352	492.49	0.0029441	0.00018449	0.079474	
305.30	2.2000	11.647	0.085862	242.94	244.79	1.1496	0.92065	1.4373	490.25	0.0071317	0.00018339	0.079269	
305.77	2.2000	11.628	0.085997	243.62	245.47	1.1519	0.92132	1.4394	488.01	0.011379	0.00018230	0.079064	
306.25	2.2000	11.610	0.086134	244.30	246.15	1.1541	0.92200	1.4416	485.77	0.015688	0.00018122	0.078858	
306.72	2.2000	11.591	0.086272	244.98	246.84	1.1563	0.92267	1.4437	483.53	0.020059	0.00018014	0.078653	
307.20	2.2000	11.573	0.086411	245.66	247.53	1.1586	0.92335	1.4460	481.28	0.024494	0.00017906	0.078447	
307.67	2.2000	11.554	0.086550	246.35	248.21	1.1608	0.92403	1.4482	479.03	0.028994	0.00017799	0.078242	
308.15	2.2000	11.535	0.086691	247.03	248.90	1.1630	0.92471	1.4504	476.77	0.033561	0.00017693	0.078036	
308.62	2.2000	11.516	0.086833	247.72	249.59	1.1653	0.92539	1.4527	474.51	0.038196	0.00017587	0.077830	
309.10	2.2000	11.497	0.086976	248.41	250.28	1.1675	0.92608	1.4550	472.25	0.042901	0.00017481	0.077624	
309.57	2.2000	11.478	0.087120	249.10	250.98	1.1698	0.92677	1.4574	469.99	0.047678	0.00017376	0.077417	
310.05	2.2000	11.459	0.087265	249.79	251.67	1.1720	0.92746	1.4597	467.72	0.052527	0.00017272	0.077211	
310.52	2.2000	11.440	0.087412	250.48	252.36	1.1742	0.92815	1.4621	465.45	0.057451	0.00017168	0.077004	
311.00	2.2000	11.421	0.087559	251.17	253.06	1.1765	0.92884	1.4646	463.17	0.062452	0.00017064	0.076798	
311.47	2.2000	11.401	0.087708	251.86	253.76	1.1787	0.92954	1.4670	460.90	0.067531	0.00016961	0.076591	
311.95	2.2000	11.382	0.087858	252.56	254.45	1.1809	0.93024	1.4695	458.61	0.072690	0.00016858	0.076383	
312.42	2.2000	11.363	0.088009	253.26	255.15	1.1832	0.93094	1.4720	456.33	0.077931	0.00016756	0.076176	
312.90	2.2000	11.343	0.088161	253.95	255.85	1.1854	0.93165	1.4746	454.04	0.083256	0.00016654	0.075969	
313.38	2.2000	11.323	0.088315	254.65	256.55	1.1877	0.93235	1.4772	451.74	0.088667	0.00016552	0.075761	
313.85	2.2000	11.303	0.088469	255.35	257.26	1.1899	0.93306	1.4798	449.44	0.094167	0.00016451	0.075553	
314.33	2.2000	11.283	0.088626	256.05	257.96	1.1921	0.93377	1.4825	447.14	0.099756	0.00016350	0.075345	
314.80	2.2000	11.263	0.088783	256.75	258.67	1.1944	0.93449	1.4852	444.83	0.10544	0.00016250	0.075137	
315.28	2.2000	11.243	0.088942	257.45	259.37	1.1966	0.93521	1.4879	442.52	0.11122	0.00016150	0.074928	
315.75	2.2000	11.223	0.089102	258.16	260.08	1.1989	0.93593	1.4907	440.20	0.11709	0.00016051	0.074719	
316.23	2.2000	11.203	0.089264	258.86	260.79	1.2011	0.93665	1.4935	437.88	0.12307	0.00015951	0.074510	
316.70	2.2000	11.182	0.089427	259.57	261.50	1.2034	0.93738	1.4963	435.56	0.12914	0.00015853	0.074301	
317.18	2.2000	11.162	0.089591	260.28	262.21	1.2056	0.93811	1.4992	433.23	0.13533	0.00015754	0.074091	
317.65	2.2000	11.141	0.089757	260.99	262.93	1.2078	0.93884	1.5022	430.89	0.14162	0.00015656	0.073882	
318.13	2.2000	11.120	0.089925	261.70	263.64	1.2101	0.93957	1.5052	428.55	0.14802	0.00015558	0.073671	
318.60	2.2000	11.100	0.090094	262.41	264.36	1.2123	0.94031	1.5082	426.21	0.15454	0.00015461	0.073461	
319.08	2.2000	11.079	0.090265	263.13	265.07	1.2146	0.94105	1.5113	423.86	0.16117	0.00015364	0.073250	
319.55	2.2000	11.057	0.090437	263.84	265.79	1.2168	0.94180	1.5144	421.50	0.16793	0.00015267	0.073039	
320.03	2.2000	11.036	0.090611	264.56	266.51	1.2191	0.94255	1.5176	419.14	0.17480	0.00015171	0.072828	
320.50	2.2000	11.015	0.090786	265.28	267.23	1.2214	0.94330	1.5208	416.77	0.18181	0.00015075	0.072616	
320.98	2.2000	10.993	0.090964	266.00	267.96	1.2236	0.94405	1.5241	414.40	0.18894	0.00014979	0.072404	
321.45	2.2000	10.972	0.091143	266.72	268.68	1.2259	0.94481	1.5274	412.02	0.19622	0.00014883	0.072191	
321.93	2.2000	10.950	0.091324	267.44	269.41	1.2281	0.94558	1.5308	409.63	0.20362	0.00014788	0.071979	
322.41	2.2000	10.928	0.091506	268.17	270.14	1.2304	0.94634	1.5343	407.24	0.21118	0.00014693	0.071765	
322.88	2.2000	10.906	0.091691	268.89	270.87	1.2327	0.94711	1.5378	404.84	0.21888	0.00014599	0.071552	
323.36	2.2000	10.884	0.091877	269.62	271.60	1.2349	0.94789	1.5414	402.44	0.22673	0.00014504	0.071338	
323.83	2.2000	10.862	0.092066	270.35	272.33	1.2372	0.94867	1.5450	400.03	0.23474	0.00014410	0.071123	
324.31	2.2000	10.839	0.092256	271.08	273.07	1.2395	0.94945	1.5487	397.61	0.24290	0.00014316	0.070908	
324.78	2.2000	10.817	0.092449	271.81	273.81	1.2417	0.95024	1.5525	395.18	0.25124	0.00014223	0.070693	
325.26	2.2000	10.794	0.092643	272.55	274.54	1.2440	0.95103	1.5563	392.75	0.25975	0.00014129	0.070477	
325.73	2.2000	10.771	0.092840	273.28	275.28	1.2463	0.95182	1.5602	390.31	0.26843	0.00014036	0.070261	
326.21	2.2000	10.748	0.093039	274.02	276.03	1.2485	0.95263	1.5642	387.86	0.27730	0.00013943	0.070044	
326.68	2.2000	10.725	0.093240	274.76	276.77	1.2508	0.95343	1.5683	385.40	0.28635	0.00013851	0.069827	
327.16	2.2000	10.702	0.093444	275.50	277.52	1.2531	0.95424	1.5724	382.94	0.29560	0.00013758	0.069609	
327.63	2.2000	10.678	0.093649	276.25	278.27	1.2554	0.95506	1.5767	380.46	0.30505	0.00013666	0.069391	
328.11	2.2000	10.654	0.093858	276.99	279.02	1.2577	0.95588	1.5810	377.98	0.31471	0.00013574	0.069172	
328.58	2.2000	10.631	0.094068	277.74	279.77	1.2600	0.95671	1.5854	375.49	0.32459	0.00013482	0.068952	
329.06	2.2000	10.607	0.094282	278.49	280.52	1.2623	0.95754	1.5899	372.99	0.33469	0.00013390	0.068732	
329.53	2.2000	10.582	0.094498	279.24	281.28	1.2646	0.95838	1.5945	370.48	0.34502	0.00013299	0.068511	
330.01	2.2000	10.558	0.094716	280.00	282.04	1.2669	0.95922	1.5992	367.96	0.35560	0.00013207	0.068290	
330.48	2.2000	10.533	0.094937	280.75	282.80	1.2692	0.96007	1.6040	365.43	0.36642	0.00013116	0.068068	
330.96	2.2000	10.508	0.095162	281.51	283.56	1.2715	0.96093	1.6089	362.89	0.37750	0.00013025	0.067845	
331.44	2.2000	10.483	0.095389	282.27	284.33	1.2738	0.96179	1.6139	360.34	0.38885	0.00012934	0.067622	
331.91	2.2000	10.458	0.095619	283.04	285.10	1.2761	0.96266	1.6190	357.78	0.40047	0.00012843	0.067398	
332.39	2.2000	10.433	0.095852	283.80	285.87	1.2784	0.96354	1.6243	355.21	0.41239	0.00012753	0.067173	
332.86	2.2000	10.407	0.096088	284.57	286.64	1.2808	0.96442	1.6297	352.62	0.42461	0.00012662	0.066948	
333.34	2.2000	10.381	0.096328	285.34	287.42	1.2831	0.96532	1.6352	350.02	0.43714	0.00012572	0.066721	
333.81	2.2000	10.355	0.096571	286.11	288.20	1.2854	0.96622	1.6409	347.41	0.45000	0.00012481	0.066494	
334.29	2.2000	10.329	0.096818	286.89	288.98	1.2878	0.96713	1.6467	344.79	0.46320	0.00012391	0.066266	
334.76	2.2000	10.302	0.097068	287.67	289.76	1.2901	0.96805	1.6527	342.15	0.47676	0.00012300	0.066037	
335.24	2.2000	10.275	0.097322	288.45	290.55	1.2925	0.96897	1.6588	339.50	0.49069	0.00012210	0.065808	
335.71	2.2000	10.248	0.097579	289.23	291.34	1.2948	0.96991	1.6651	336.83	0.50500	0.00012120	0.065577	
336.19	2.2000	10.221	0.097841	290.02	292.13	1.2972	0.97086	1.6716	334.15	0.51972	0.00012030	0.065345	
336.66	2.2000	10.193	0.098107	290.81	292.93	1.2995	0.97182	1.6783	331.45	0.53487	0.00011939	0.065113	
337.14	2.2000	10.165	0.098376	291.60	293.73	1.3019	0.97279	1.6851	328.73	0.55045	0.00011849	0.064879	
337.61	2.2000	10.137	0.098651	292.40	294.53	1.3043	0.97377	1.6922	326.00	0.56651	0.00011759	0.064644	
338.09	2.2000	10.108	0.098930	293.20	295.33	1.3067	0.97476	1.6995	323.25	0.58305	0.00011669	0.064409	
338.56	2.2000	10.079	0.099213	294.00	296.14	1.3091	0.97577	1.7070	320.48	0.60011	0.00011578	0.064172	
339.04	2.2000	10.050	0.099502	294.81	296.96	1.3115	0.97679	1.7147	317.69	0.61770	0.00011488	0.063934	
339.51	2.2000	10.021	0.099795	295.62	297.77	1.3139	0.97782	1.7228	314.88	0.63586	0.00011397	0.063695	
339.99	2.2000	9.9906	0.10009	296.44	298.59	1.3163	0.97887	1.7311	312.04	0.65463	0.00011307	0.063454	
340.46	2.2000	9.9603	0.10040	297.25	299.42	1.3187	0.97993	1.7396	309.19	0.67402	0.00011216	0.063212	
340.94	2.2000	9.9297	0.10071	298.08	300.25	1.3211	0.98102	1.7485	306.31	0.69409	0.00011125	0.062969	
341.42	2.2000	9.8986	0.10102	298.90	301.08	1.3236	0.98212	1.7578	303.40	0.71486	0.00011034	0.062725	
341.89	2.2000	9.8671	0.10135	299.73	301.92	1.3260	0.98324	1.7673	300.47	0.73638	0.00010942	0.062479	
342.37	2.2000	9.8352	0.10168	300.57	302.76	1.3285	0.98438	1.7773	297.51	0.75869	0.00010851	0.062232	
342.84	2.2000	9.8029	0.10201	301.41	303.61	1.3310	0.98554	1.7876	294.52	0.78185	0.00010759	0.061983	
343.32	2.2000	9.7700	0.10235	302.25	304.46	1.3335	0.98673	1.7984	291.50	0.80591	0.00010667	0.061732	
343.79	2.2000	9.7367	0.10270	303.10	305.32	1.3359	0.98794	1.8097	288.45	0.83093	0.00010574	0.061480	
344.27	2.2000	9.7029	0.10306	303.96	306.18	1.3385	0.98918	1.8214	285.36	0.85697	0.00010482	0.061226	
344.74	2.2000	9.6685	0.10343	304.82	307.05	1.3410	0.99045	1.8337	282.24	0.88412	0.00010388	0.060971	
344.88	2.2000	9.6585	0.10354	305.07	307.30	1.3417	0.99083	1.8374	281.33	0.89219	0.00010361	0.060896	
344.881	2.2000	1.1900	0.84031	410.72	428.84	1.6941	1.0062	1.6566	124.24	19.344	1.4662e-05	0.020931	
345.22	2.2000	1.1844	0.84430	411.19	429.40	1.6957	1.0042	1.6413	124.67	19.204	1.4669e-05	0.020893	
345.69	2.2000	1.1767	0.84984	411.85	430.17	1.6980	1.0015	1.6210	125.27	19.011	1.4679e-05	0.020844	
346.17	2.2000	1.1692	0.85529	412.49	430.94	1.7002	0.99902	1.6020	125.85	18.823	1.4689e-05	0.020800	
346.64	2.2000	1.1619	0.86064	413.14	431.69	1.7024	0.99663	1.5842	126.42	18.640	1.4699e-05	0.020760	
347.12	2.2000	1.1549	0.86591	413.77	432.44	1.7045	0.99438	1.5674	126.98	18.461	1.4710e-05	0.020723	
347.59	2.2000	1.1480	0.87110	414.40	433.18	1.7067	0.99226	1.5516	127.53	18.288	1.4721e-05	0.020690	
348.07	2.2000	1.1413	0.87621	415.02	433.92	1.7088	0.99024	1.5366	128.07	18.118	1.4733e-05	0.020661	
348.54	2.2000	1.1348	0.88125	415.64	434.64	1.7109	0.98834	1.5225	128.60	17.952	1.4745e-05	0.020635	
349.02	2.2000	1.1284	0.88622	416.26	435.36	1.7129	0.98654	1.5091	129.11	17.790	1.4757e-05	0.020611	
349.49	2.2000	1.1222	0.89112	416.86	436.08	1.7150	0.98484	1.4964	129.63	17.632	1.4769e-05	0.020590	
349.97	2.2000	1.1161	0.89597	417.47	436.79	1.7170	0.98323	1.4844	130.13	17.478	1.4782e-05	0.020571	
350.45	2.2000	1.1102	0.90075	418.07	437.49	1.7190	0.98170	1.4729	130.62	17.326	1.4795e-05	0.020555	
350.92	2.2000	1.1044	0.90547	418.66	438.19	1.7210	0.98025	1.4620	131.11	17.178	1.4808e-05	0.020541	
351.40	2.2000	1.0987	0.91014	419.26	438.88	1.7230	0.97889	1.4516	131.59	17.033	1.4821e-05	0.020529	
351.87	2.2000	1.0932	0.91476	419.84	439.57	1.7249	0.97759	1.4417	132.06	16.891	1.4835e-05	0.020519	
352.35	2.2000	1.0878	0.91933	420.43	440.25	1.7269	0.97636	1.4323	132.53	16.752	1.4849e-05	0.020511	
352.82	2.2000	1.0824	0.92384	421.01	440.93	1.7288	0.97520	1.4232	132.99	16.615	1.4863e-05	0.020504	
353.30	2.2000	1.0772	0.92832	421.59	441.60	1.7307	0.97410	1.4146	133.44	16.481	1.4877e-05	0.020499	
353.77	2.2000	1.0721	0.93274	422.16	442.27	1.7326	0.97306	1.4063	133.89	16.350	1.4891e-05	0.020495	
354.25	2.2000	1.0671	0.93713	422.73	442.94	1.7345	0.97208	1.3983	134.33	16.221	1.4905e-05	0.020493	
354.72	2.2000	1.0622	0.94147	423.30	443.60	1.7363	0.97115	1.3907	134.76	16.094	1.4920e-05	0.020492	
355.20	2.2000	1.0573	0.94577	423.87	444.26	1.7382	0.97027	1.3834	135.19	15.970	1.4935e-05	0.020493	
355.67	2.2000	1.0526	0.95003	424.43	444.92	1.7400	0.96943	1.3764	135.62	15.847	1.4949e-05	0.020494	
356.15	2.2000	1.0479	0.95425	424.99	445.57	1.7419	0.96865	1.3696	136.04	15.727	1.4964e-05	0.020497	
356.62	2.2000	1.0434	0.95844	425.55	446.22	1.7437	0.96791	1.3631	136.45	15.609	1.4980e-05	0.020501	
357.10	2.2000	1.0389	0.96260	426.11	446.87	1.7455	0.96721	1.3569	136.86	15.493	1.4995e-05	0.020506	
357.57	2.2000	1.0344	0.96671	426.66	447.51	1.7473	0.96655	1.3509	137.27	15.379	1.5010e-05	0.020512	
358.05	2.2000	1.0301	0.97080	427.22	448.15	1.7491	0.96593	1.3451	137.67	15.267	1.5026e-05	0.020518	
358.52	2.2000	1.0258	0.97485	427.77	448.79	1.7509	0.96534	1.3395	138.06	15.156	1.5041e-05	0.020526	
359.00	2.2000	1.0216	0.97888	428.32	449.42	1.7526	0.96479	1.3341	138.46	15.047	1.5057e-05	0.020535	
359.47	2.2000	1.0174	0.98287	428.86	450.06	1.7544	0.96428	1.3289	138.85	14.940	1.5072e-05	0.020544	
359.95	2.2000	1.0133	0.98683	429.41	450.69	1.7562	0.96380	1.3239	139.23	14.835	1.5088e-05	0.020554	
360.43	2.2000	1.0093	0.99077	429.95	451.31	1.7579	0.96335	1.3191	139.61	14.731	1.5104e-05	0.020565	
360.90	2.2000	1.0054	0.99467	430.49	451.94	1.7596	0.96292	1.3144	139.99	14.629	1.5120e-05	0.020577	
361.38	2.2000	1.0014	0.99855	431.03	452.56	1.7614	0.96253	1.3098	140.36	14.528	1.5136e-05	0.020589	
361.85	2.2000	0.99760	1.0024	431.57	453.18	1.7631	0.96217	1.3055	140.73	14.429	1.5152e-05	0.020602	
362.33	2.2000	0.99380	1.0062	432.11	453.80	1.7648	0.96183	1.3012	141.10	14.331	1.5168e-05	0.020616	
362.80	2.2000	0.99006	1.0100	432.64	454.42	1.7665	0.96151	1.2972	141.46	14.234	1.5185e-05	0.020630	
363.28	2.2000	0.98637	1.0138	433.18	455.04	1.7682	0.96122	1.2932	141.82	14.139	1.5201e-05	0.020645	
363.75	2.2000	0.98273	1.0176	433.71	455.65	1.7699	0.96096	1.2893	142.17	14.045	1.5217e-05	0.020661	
364.23	2.2000	0.97914	1.0213	434.24	456.26	1.7716	0.96072	1.2856	142.53	13.953	1.5234e-05	0.020677	
364.70	2.2000	0.97560	1.0250	434.77	456.87	1.7732	0.96050	1.2820	142.88	13.862	1.5250e-05	0.020693	
365.18	2.2000	0.97210	1.0287	435.30	457.48	1.7749	0.96030	1.2785	143.22	13.772	1.5267e-05	0.020710	
365.65	2.2000	0.96865	1.0324	435.83	458.09	1.7766	0.96012	1.2751	143.57	13.683	1.5284e-05	0.020728	
366.13	2.2000	0.96524	1.0360	436.35	458.69	1.7782	0.95996	1.2719	143.91	13.595	1.5300e-05	0.020746	
366.60	2.2000	0.96187	1.0396	436.88	459.30	1.7799	0.95981	1.2687	144.25	13.509	1.5317e-05	0.020764	
367.08	2.2000	0.95855	1.0432	437.40	459.90	1.7815	0.95969	1.2656	144.58	13.423	1.5334e-05	0.020783	
367.55	2.2000	0.95527	1.0468	437.93	460.50	1.7831	0.95959	1.2626	144.92	13.339	1.5351e-05	0.020802	
368.03	2.2000	0.95202	1.0504	438.45	461.10	1.7848	0.95950	1.2597	145.25	13.255	1.5367e-05	0.020822	
368.50	2.2000	0.94882	1.0539	438.97	461.70	1.7864	0.95942	1.2568	145.58	13.173	1.5384e-05	0.020842	
368.98	2.2000	0.94565	1.0575	439.49	462.29	1.7880	0.95937	1.2541	145.90	13.092	1.5401e-05	0.020863	
369.46	2.2000	0.94252	1.0610	440.01	462.89	1.7896	0.95933	1.2514	146.22	13.012	1.5418e-05	0.020883	
369.93	2.2000	0.93943	1.0645	440.53	463.48	1.7912	0.95930	1.2488	146.54	12.932	1.5435e-05	0.020905	
370.41	2.2000	0.93637	1.0679	441.05	464.08	1.7928	0.95929	1.2463	146.86	12.854	1.5452e-05	0.020926	
370.88	2.2000	0.93335	1.0714	441.57	464.67	1.7944	0.95929	1.2438	147.18	12.777	1.5469e-05	0.020948	
371.36	2.2000	0.93036	1.0749	442.08	465.26	1.7960	0.95931	1.2415	147.49	12.700	1.5487e-05	0.020970	
371.83	2.2000	0.92741	1.0783	442.60	465.85	1.7976	0.95934	1.2391	147.80	12.624	1.5504e-05	0.020993	
372.31	2.2000	0.92448	1.0817	443.11	466.44	1.7992	0.95938	1.2369	148.11	12.550	1.5521e-05	0.021016	
372.78	2.2000	0.92159	1.0851	443.63	467.02	1.8008	0.95943	1.2347	148.42	12.476	1.5538e-05	0.021039	
373.26	2.2000	0.91873	1.0885	444.14	467.61	1.8023	0.95950	1.2326	148.72	12.403	1.5556e-05	0.021062	
373.73	2.2000	0.91590	1.0918	444.65	468.19	1.8039	0.95957	1.2305	149.03	12.330	1.5573e-05	0.021086	
374.21	2.2000	0.91310	1.0952	445.17	468.78	1.8055	0.95966	1.2285	149.33	12.259	1.5590e-05	0.021110	
374.68	2.2000	0.91032	1.0985	445.68	469.36	1.8070	0.95976	1.2265	149.63	12.188	1.5608e-05	0.021134	
375.16	2.2000	0.90758	1.1018	446.19	469.95	1.8086	0.95987	1.2246	149.92	12.118	1.5625e-05	0.021159	
375.63	2.2000	0.90486	1.1051	446.70	470.53	1.8101	0.95999	1.2227	150.22	12.049	1.5642e-05	0.021183	
376.11	2.2000	0.90218	1.1084	447.21	471.11	1.8117	0.96012	1.2209	150.51	11.981	1.5660e-05	0.021208	
376.58	2.2000	0.89951	1.1117	447.72	471.69	1.8132	0.96026	1.2191	150.80	11.913	1.5677e-05	0.021234	
377.06	2.2000	0.89688	1.1150	448.23	472.27	1.8148	0.96041	1.2174	151.09	11.846	1.5695e-05	0.021259	
377.53	2.2000	0.89427	1.1182	448.73	472.84	1.8163	0.96057	1.2158	151.38	11.780	1.5712e-05	0.021285	
378.01	2.2000	0.89168	1.1215	449.24	473.42	1.8178	0.96073	1.2141	151.67	11.714	1.5730e-05	0.021311	
378.48	2.2000	0.88913	1.1247	449.75	474.00	1.8193	0.96091	1.2125	151.95	11.649	1.5747e-05	0.021337	
378.96	2.2000	0.88659	1.1279	450.25	474.57	1.8209	0.96109	1.2110	152.23	11.585	1.5765e-05	0.021363	
379.44	2.2000	0.88408	1.1311	450.76	475.15	1.8224	0.96128	1.2095	152.51	11.522	1.5782e-05	0.021390	
379.91	2.2000	0.88159	1.1343	451.27	475.72	1.8239	0.96148	1.2080	152.79	11.459	1.5800e-05	0.021417	
380.39	2.2000	0.87913	1.1375	451.77	476.30	1.8254	0.96169	1.2066	153.07	11.396	1.5818e-05	0.021443	
380.86	2.2000	0.87669	1.1407	452.28	476.87	1.8269	0.96191	1.2052	153.35	11.335	1.5835e-05	0.021471	
381.34	2.2000	0.87427	1.1438	452.78	477.44	1.8284	0.96213	1.2038	153.62	11.273	1.5853e-05	0.021498	
381.81	2.2000	0.87187	1.1470	453.28	478.01	1.8299	0.96236	1.2025	153.89	11.213	1.5871e-05	0.021525	
382.29	2.2000	0.86949	1.1501	453.79	478.59	1.8314	0.96260	1.2012	154.16	11.153	1.5888e-05	0.021553	
382.76	2.2000	0.86714	1.1532	454.29	479.16	1.8329	0.96284	1.2000	154.43	11.094	1.5906e-05	0.021581	
383.24	2.2000	0.86480	1.1563	454.79	479.73	1.8344	0.96309	1.1987	154.70	11.035	1.5924e-05	0.021609	
383.71	2.2000	0.86249	1.1594	455.30	480.30	1.8359	0.96335	1.1975	154.97	10.977	1.5942e-05	0.021637	
384.19	2.2000	0.86019	1.1625	455.80	480.86	1.8373	0.96361	1.1964	155.23	10.919	1.5959e-05	0.021665	
384.66	2.2000	0.85792	1.1656	456.30	481.43	1.8388	0.96388	1.1953	155.50	10.862	1.5977e-05	0.021694	
385.14	2.2000	0.85566	1.1687	456.80	482.00	1.8403	0.96416	1.1942	155.76	10.805	1.5995e-05	0.021722	
385.61	2.2000	0.85343	1.1717	457.30	482.57	1.8418	0.96444	1.1931	156.02	10.749	1.6013e-05	0.021751	
386.09	2.2000	0.85121	1.1748	457.80	483.14	1.8432	0.96473	1.1920	156.28	10.694	1.6031e-05	0.021780	
386.56	2.2000	0.84901	1.1778	458.30	483.70	1.8447	0.96502	1.1910	156.54	10.639	1.6048e-05	0.021809	
387.04	2.2000	0.84683	1.1809	458.81	484.27	1.8462	0.96532	1.1900	156.80	10.584	1.6066e-05	0.021838	
387.51	2.2000	0.84467	1.1839	459.31	484.83	1.8476	0.96563	1.1891	157.05	10.530	1.6084e-05	0.021867	
387.99	2.2000	0.84253	1.1869	459.81	485.40	1.8491	0.96593	1.1881	157.31	10.476	1.6102e-05	0.021897	
388.47	2.2000	0.84040	1.1899	460.31	485.96	1.8505	0.96625	1.1872	157.56	10.423	1.6120e-05	0.021926	
388.94	2.2000	0.83829	1.1929	460.80	486.53	1.8520	0.96657	1.1863	157.81	10.371	1.6138e-05	0.021956	
389.42	2.2000	0.83619	1.1959	461.30	487.09	1.8534	0.96689	1.1854	158.06	10.319	1.6155e-05	0.021986	
389.89	2.2000	0.83412	1.1989	461.80	487.65	1.8549	0.96722	1.1846	158.31	10.267	1.6173e-05	0.022016	
390.37	2.2000	0.83205	1.2018	462.30	488.22	1.8563	0.96756	1.1838	158.56	10.216	1.6191e-05	0.022046	
390.84	2.2000	0.83001	1.2048	462.80	488.78	1.8578	0.96790	1.1830	158.81	10.165	1.6209e-05	0.022076	
391.32	2.2000	0.82798	1.2078	463.30	489.34	1.8592	0.96824	1.1822	159.05	10.114	1.6227e-05	0.022106	
391.79	2.2000	0.82597	1.2107	463.80	489.90	1.8606	0.96859	1.1814	159.30	10.064	1.6245e-05	0.022136	
392.27	2.2000	0.82397	1.2136	464.29	490.46	1.8621	0.96894	1.1807	159.54	10.015	1.6263e-05	0.022167	
392.74	2.2000	0.82199	1.2166	464.79	491.02	1.8635	0.96930	1.1800	159.78	9.9658	1.6281e-05	0.022197	
393.22	2.2000	0.82002	1.2195	465.29	491.58	1.8649	0.96966	1.1793	160.03	9.9171	1.6299e-05	0.022228	
393.69	2.2000	0.81806	1.2224	465.79	492.14	1.8664	0.97002	1.1786	160.27	9.8689	1.6317e-05	0.022259	
394.17	2.2000	0.81612	1.2253	466.28	492.70	1.8678	0.97039	1.1779	160.51	9.8210	1.6335e-05	0.022290	
394.64	2.2000	0.81420	1.2282	466.78	493.26	1.8692	0.97076	1.1773	160.74	9.7735	1.6353e-05	0.022321	
395.12	2.2000	0.81229	1.2311	467.28	493.82	1.8706	0.97114	1.1767	160.98	9.7264	1.6371e-05	0.022352	
395.59	2.2000	0.81039	1.2340	467.78	494.38	1.8720	0.97152	1.1761	161.22	9.6797	1.6389e-05	0.022383	
396.07	2.2000	0.80851	1.2368	468.27	494.94	1.8734	0.97191	1.1755	161.45	9.6333	1.6407e-05	0.022414	
396.54	2.2000	0.80664	1.2397	468.77	495.50	1.8748	0.97229	1.1749	161.69	9.5874	1.6425e-05	0.022446	
397.02	2.2000	0.80478	1.2426	469.27	496.06	1.8762	0.97269	1.1743	161.92	9.5418	1.6443e-05	0.022477	
397.49	2.2000	0.80294	1.2454	469.76	496.62	1.8777	0.97308	1.1738	162.15	9.4966	1.6461e-05	0.022508	
397.97	2.2000	0.80111	1.2483	470.26	497.17	1.8791	0.97348	1.1733	162.38	9.4517	1.6479e-05	0.022540	
398.45	2.2000	0.79929	1.2511	470.76	497.73	1.8805	0.97388	1.1728	162.61	9.4072	1.6497e-05	0.022572	
398.92	2.2000	0.79749	1.2539	471.25	498.29	1.8819	0.97429	1.1723	162.84	9.3631	1.6515e-05	0.022603	
399.40	2.2000	0.79569	1.2568	471.75	498.85	1.8832	0.97469	1.1718	163.07	9.3193	1.6533e-05	0.022635	
399.87	2.2000	0.79391	1.2596	472.24	499.40	1.8846	0.97511	1.1713	163.30	9.2758	1.6551e-05	0.022667	
400.35	2.2000	0.79215	1.2624	472.74	499.96	1.8860	0.97552	1.1709	163.52	9.2327	1.6569e-05	0.022699	
400.82	2.2000	0.79039	1.2652	473.24	500.52	1.8874	0.97594	1.1705	163.75	9.1899	1.6587e-05	0.022731	
401.30	2.2000	0.78865	1.2680	473.73	501.07	1.8888	0.97636	1.1700	163.97	9.1474	1.6605e-05	0.022763	
401.77	2.2000	0.78691	1.2708	474.23	501.63	1.8902	0.97678	1.1696	164.20	9.1053	1.6623e-05	0.022796	
402.25	2.2000	0.78519	1.2736	474.72	502.18	1.8916	0.97721	1.1692	164.42	9.0635	1.6641e-05	0.022828	
402.72	2.2000	0.78348	1.2764	475.22	502.74	1.8930	0.97764	1.1689	164.64	9.0220	1.6659e-05	0.022860	
403.20	2.2000	0.78178	1.2791	475.71	503.29	1.8943	0.97807	1.1685	164.86	8.9808	1.6677e-05	0.022893	
403.67	2.2000	0.78010	1.2819	476.21	503.85	1.8957	0.97851	1.1681	165.08	8.9399	1.6695e-05	0.022925	
404.15	2.2000	0.77842	1.2847	476.71	504.40	1.8971	0.97895	1.1678	165.30	8.8994	1.6713e-05	0.022958	
404.62	2.2000	0.77676	1.2874	477.20	504.96	1.8985	0.97939	1.1675	165.52	8.8591	1.6732e-05	0.022990	
405.10	2.2000	0.77510	1.2902	477.70	505.51	1.8998	0.97983	1.1672	165.74	8.8192	1.6750e-05	0.023023	
405.57	2.2000	0.77346	1.2929	478.19	506.07	1.9012	0.98028	1.1668	165.95	8.7795	1.6768e-05	0.023056	
406.05	2.2000	0.77182	1.2956	478.69	506.62	1.9026	0.98072	1.1666	166.17	8.7401	1.6786e-05	0.023089	
406.52	2.2000	0.77020	1.2984	479.18	507.18	1.9039	0.98118	1.1663	166.38	8.7010	1.6804e-05	0.023121	
407.00	2.2000	0.76859	1.3011	479.68	507.73	1.9053	0.98163	1.1660	166.60	8.6622	1.6822e-05	0.023154	
407.48	2.2000	0.76698	1.3038	480.17	508.29	1.9067	0.98209	1.1657	166.81	8.6237	1.6840e-05	0.023187	
407.95	2.2000	0.76539	1.3065	480.67	508.84	1.9080	0.98254	1.1655	167.02	8.5855	1.6858e-05	0.023220	
408.43	2.2000	0.76381	1.3092	481.16	509.39	1.9094	0.98301	1.1653	167.24	8.5475	1.6876e-05	0.023253	
408.90	2.2000	0.76223	1.3119	481.66	509.95	1.9107	0.98347	1.1650	167.45	8.5098	1.6894e-05	0.023287	
409.38	2.2000	0.76067	1.3146	482.16	510.50	1.9121	0.98393	1.1648	167.66	8.4724	1.6912e-05	0.023320	
409.85	2.2000	0.75911	1.3173	482.65	511.05	1.9134	0.98440	1.1646	167.87	8.4353	1.6930e-05	0.023353	
410.33	2.2000	0.75757	1.3200	483.15	511.61	1.9148	0.98487	1.1644	168.08	8.3984	1.6949e-05	0.023386	
410.80	2.2000	0.75603	1.3227	483.64	512.16	1.9161	0.98534	1.1642	168.28	8.3618	1.6967e-05	0.023420	
411.28	2.2000	0.75450	1.3254	484.14	512.71	1.9175	0.98582	1.1640	168.49	8.3254	1.6985e-05	0.023453	
411.75	2.2000	0.75299	1.3280	484.63	513.27	1.9188	0.98629	1.1639	168.70	8.2893	1.7003e-05	0.023487	
412.23	2.2000	0.75148	1.3307	485.13	513.82	1.9202	0.98677	1.1637	168.90	8.2534	1.7021e-05	0.023520	
412.70	2.2000	0.74998	1.3334	485.62	514.37	1.9215	0.98725	1.1636	169.11	8.2178	1.7039e-05	0.023554	
413.18	2.2000	0.74849	1.3360	486.12	514.93	1.9228	0.98774	1.1634	169.31	8.1825	1.7057e-05	0.023587	
413.65	2.2000	0.74700	1.3387	486.62	515.48	1.9242	0.98822	1.1633	169.52	8.1474	1.7075e-05	0.023621	
414.13	2.2000	0.74553	1.3413	487.11	516.03	1.9255	0.98871	1.1632	169.72	8.1125	1.7093e-05	0.023655	
414.60	2.2000	0.74406	1.3440	487.61	516.59	1.9268	0.98920	1.1631	169.92	8.0779	1.7111e-05	0.023688	
415.08	2.2000	0.74261	1.3466	488.10	517.14	1.9282	0.98969	1.1629	170.12	8.0435	1.7130e-05	0.023722	
415.55	2.2000	0.74116	1.3492	488.60	517.69	1.9295	0.99018	1.1628	170.33	8.0093	1.7148e-05	0.023756	
416.03	2.2000	0.73972	1.3519	489.09	518.24	1.9308	0.99067	1.1628	170.53	7.9754	1.7166e-05	0.023790	
416.50	2.2000	0.73829	1.3545	489.59	518.80	1.9322	0.99117	1.1627	170.73	7.9417	1.7184e-05	0.023824	
416.98	2.2000	0.73686	1.3571	490.09	519.35	1.9335	0.99167	1.1626	170.92	7.9082	1.7202e-05	0.023858	
417.46	2.2000	0.73545	1.3597	490.58	519.90	1.9348	0.99217	1.1625	171.12	7.8750	1.7220e-05	0.023892	
417.93	2.2000	0.73404	1.3623	491.08	520.45	1.9361	0.99267	1.1625	171.32	7.8419	1.7238e-05	0.023926	
418.41	2.2000	0.73264	1.3649	491.58	521.01	1.9375	0.99317	1.1624	171.52	7.8091	1.7256e-05	0.023960	
418.88	2.2000	0.73124	1.3675	492.07	521.56	1.9388	0.99368	1.1624	171.71	7.7766	1.7274e-05	0.023994	
419.36	2.2000	0.72986	1.3701	492.57	522.11	1.9401	0.99418	1.1624	171.91	7.7442	1.7293e-05	0.024028	
419.83	2.2000	0.72848	1.3727	493.06	522.66	1.9414	0.99469	1.1623	172.11	7.7120	1.7311e-05	0.024062	
420.31	2.2000	0.72711	1.3753	493.56	523.22	1.9427	0.99520	1.1623	172.30	7.6801	1.7329e-05	0.024097	
420.78	2.2000	0.72575	1.3779	494.06	523.77	1.9440	0.99571	1.1623	172.49	7.6484	1.7347e-05	0.024131	
421.26	2.2000	0.72439	1.3805	494.55	524.32	1.9454	0.99622	1.1623	172.69	7.6168	1.7365e-05	0.024165	
421.73	2.2000	0.72304	1.3830	495.05	524.87	1.9467	0.99674	1.1623	172.88	7.5855	1.7383e-05	0.024200	
422.21	2.2000	0.72170	1.3856	495.55	525.43	1.9480	0.99725	1.1623	173.07	7.5544	1.7401e-05	0.024234	
422.68	2.2000	0.72037	1.3882	496.05	525.98	1.9493	0.99777	1.1623	173.26	7.5235	1.7419e-05	0.024268	
423.16	2.2000	0.71904	1.3907	496.54	526.53	1.9506	0.99829	1.1623	173.46	7.4928	1.7437e-05	0.024303	
423.63	2.2000	0.71772	1.3933	497.04	527.08	1.9519	0.99881	1.1624	173.65	7.4623	1.7456e-05	0.024337	
424.11	2.2000	0.71641	1.3959	497.54	527.63	1.9532	0.99933	1.1624	173.84	7.4319	1.7474e-05	0.024372	
424.58	2.2000	0.71510	1.3984	498.03	528.19	1.9545	0.99986	1.1624	174.03	7.4018	1.7492e-05	0.024406	
425.06	2.2000	0.71380	1.4010	498.53	528.74	1.9558	1.0004	1.1625	174.21	7.3719	1.7510e-05	0.024441	
425.53	2.2000	0.71251	1.4035	499.03	529.29	1.9571	1.0009	1.1625	174.40	7.3421	1.7528e-05	0.024476	
426.01	2.2000	0.71122	1.4060	499.53	529.84	1.9584	1.0014	1.1626	174.59	7.3126	1.7546e-05	0.024510	
426.49	2.2000	0.70994	1.4086	500.03	530.40	1.9597	1.0020	1.1626	174.78	7.2832	1.7564e-05	0.024545	
426.96	2.2000	0.70867	1.4111	500.52	530.95	1.9610	1.0025	1.1627	174.96	7.2540	1.7582e-05	0.024580	
427.44	2.2000	0.70740	1.4136	501.02	531.50	1.9623	1.0030	1.1628	175.15	7.2250	1.7600e-05	0.024614	
427.91	2.2000	0.70614	1.4161	501.52	532.05	1.9636	1.0036	1.1629	175.34	7.1962	1.7618e-05	0.024649	
428.39	2.2000	0.70489	1.4187	502.02	532.61	1.9649	1.0041	1.1630	175.52	7.1675	1.7637e-05	0.024684	
428.86	2.2000	0.70364	1.4212	502.52	533.16	1.9661	1.0046	1.1630	175.71	7.1391	1.7655e-05	0.024719	
429.34	2.2000	0.70240	1.4237	503.02	533.71	1.9674	1.0052	1.1631	175.89	7.1108	1.7673e-05	0.024754	
429.81	2.2000	0.70116	1.4262	503.51	534.27	1.9687	1.0057	1.1632	176.07	7.0827	1.7691e-05	0.024788	
430.29	2.2000	0.69993	1.4287	504.01	534.82	1.9700	1.0062	1.1634	176.26	7.0547	1.7709e-05	0.024823	
430.76	2.2000	0.69871	1.4312	504.51	535.37	1.9713	1.0068	1.1635	176.44	7.0270	1.7727e-05	0.024858	
431.24	2.2000	0.69749	1.4337	505.01	535.92	1.9726	1.0073	1.1636	176.62	6.9994	1.7745e-05	0.024893	
431.71	2.2000	0.69628	1.4362	505.51	536.48	1.9739	1.0079	1.1637	176.80	6.9720	1.7763e-05	0.024928	
432.19	2.2000	0.69508	1.4387	506.01	537.03	1.9751	1.0084	1.1638	176.98	6.9447	1.7781e-05	0.024963	
432.66	2.2000	0.69388	1.4412	506.51	537.58	1.9764	1.0090	1.1640	177.16	6.9176	1.7799e-05	0.024998	
433.14	2.2000	0.69268	1.4437	507.01	538.14	1.9777	1.0095	1.1641	177.34	6.8907	1.7818e-05	0.025033	
433.61	2.2000	0.69150	1.4461	507.51	538.69	1.9790	1.0101	1.1643	177.52	6.8639	1.7836e-05	0.025068	
434.09	2.2000	0.69031	1.4486	508.01	539.24	1.9802	1.0106	1.1644	177.70	6.8373	1.7854e-05	0.025104	
434.56	2.2000	0.68914	1.4511	508.51	539.80	1.9815	1.0112	1.1646	177.88	6.8108	1.7872e-05	0.025139	
435.04	2.2000	0.68797	1.4536	509.01	540.35	1.9828	1.0117	1.1647	178.06	6.7846	1.7890e-05	0.025174	
435.51	2.2000	0.68680	1.4560	509.51	540.90	1.9841	1.0123	1.1649	178.24	6.7584	1.7908e-05	0.025209	
435.99	2.2000	0.68564	1.4585	510.01	541.46	1.9853	1.0128	1.1650	178.41	6.7324	1.7926e-05	0.025244	
436.47	2.2000	0.68449	1.4610	510.51	542.01	1.9866	1.0134	1.1652	178.59	6.7066	1.7944e-05	0.025280	
436.94	2.2000	0.68334	1.4634	511.01	542.57	1.9879	1.0139	1.1654	178.77	6.6810	1.7962e-05	0.025315	
437.42	2.2000	0.68219	1.4659	511.51	543.12	1.9891	1.0145	1.1656	178.94	6.6554	1.7980e-05	0.025350	
437.89	2.2000	0.68105	1.4683	512.01	543.67	1.9904	1.0150	1.1658	179.12	6.6301	1.7998e-05	0.025385	
438.37	2.2000	0.67992	1.4708	512.51	544.23	1.9917	1.0156	1.1659	179.29	6.6049	1.8016e-05	0.025421	
438.84	2.2000	0.67879	1.4732	513.02	544.78	1.9929	1.0162	1.1661	179.47	6.5798	1.8034e-05	0.025456	
439.32	2.2000	0.67767	1.4756	513.52	545.34	1.9942	1.0167	1.1663	179.64	6.5549	1.8053e-05	0.025491	
439.79	2.2000	0.67655	1.4781	514.02	545.89	1.9955	1.0173	1.1665	179.81	6.5301	1.8071e-05	0.025527	
440.27	2.2000	0.67544	1.4805	514.52	546.44	1.9967	1.0178	1.1667	179.99	6.5054	1.8089e-05	0.025562	
440.74	2.2000	0.67433	1.4830	515.02	547.00	1.9980	1.0184	1.1669	180.16	6.4810	1.8107e-05	0.025598	
441.22	2.2000	0.67323	1.4854	515.53	547.55	1.9992	1.0190	1.1672	180.33	6.4566	1.8125e-05	0.025633	
441.69	2.2000	0.67213	1.4878	516.03	548.11	2.0005	1.0195	1.1674	180.50	6.4324	1.8143e-05	0.025669	
442.17	2.2000	0.67103	1.4902	516.53	548.66	2.0017	1.0201	1.1676	180.67	6.4083	1.8161e-05	0.025704	
442.64	2.2000	0.66995	1.4927	517.03	549.22	2.0030	1.0207	1.1678	180.84	6.3844	1.8179e-05	0.025740	
443.12	2.2000	0.66886	1.4951	517.54	549.77	2.0043	1.0212	1.1681	181.01	6.3606	1.8197e-05	0.025775	
443.59	2.2000	0.66778	1.4975	518.04	550.33	2.0055	1.0218	1.1683	181.18	6.3369	1.8215e-05	0.025811	
444.07	2.2000	0.66671	1.4999	518.54	550.88	2.0068	1.0224	1.1685	181.35	6.3134	1.8233e-05	0.025846	
444.54	2.2000	0.66564	1.5023	519.05	551.44	2.0080	1.0229	1.1688	181.52	6.2900	1.8251e-05	0.025882	
445.02	2.2000	0.66458	1.5047	519.55	551.99	2.0093	1.0235	1.1690	181.69	6.2668	1.8269e-05	0.025918	
445.50	2.2000	0.66352	1.5071	520.05	552.55	2.0105	1.0241	1.1693	181.86	6.2436	1.8287e-05	0.025953	
445.97	2.2000	0.66246	1.5095	520.56	553.11	2.0118	1.0247	1.1695	182.03	6.2206	1.8305e-05	0.025989	
446.45	2.2000	0.66141	1.5119	521.06	553.66	2.0130	1.0252	1.1698	182.20	6.1978	1.8323e-05	0.026024	
446.92	2.2000	0.66036	1.5143	521.57	554.22	2.0142	1.0258	1.1700	182.36	6.1750	1.8341e-05	0.026060	
447.40	2.2000	0.65932	1.5167	522.07	554.77	2.0155	1.0264	1.1703	182.53	6.1524	1.8359e-05	0.026096	
447.87	2.2000	0.65828	1.5191	522.58	555.33	2.0167	1.0269	1.1705	182.70	6.1299	1.8378e-05	0.026132	
448.35	2.2000	0.65725	1.5215	523.08	555.89	2.0180	1.0275	1.1708	182.86	6.1076	1.8396e-05	0.026167	
448.82	2.2000	0.65622	1.5239	523.59	556.44	2.0192	1.0281	1.1711	183.03	6.0853	1.8414e-05	0.026203	
449.30	2.2000	0.65520	1.5263	524.09	557.00	2.0204	1.0287	1.1714	183.19	6.0632	1.8432e-05	0.026239	
449.77	2.2000	0.65418	1.5286	524.60	557.56	2.0217	1.0293	1.1716	183.36	6.0412	1.8450e-05	0.026275	
450.25	2.2000	0.65316	1.5310	525.10	558.11	2.0229	1.0298	1.1719	183.52	6.0194	1.8468e-05	0.026310	
450.72	2.2000	0.65215	1.5334	525.61	558.67	2.0242	1.0304	1.1722	183.69	5.9976	1.8486e-05	0.026346	
451.20	2.2000	0.65114	1.5358	526.11	559.23	2.0254	1.0310	1.1725	183.85	5.9760	1.8504e-05	0.026382	
451.67	2.2000	0.65014	1.5381	526.62	559.78	2.0266	1.0316	1.1728	184.01	5.9545	1.8522e-05	0.026418	
452.15	2.2000	0.64914	1.5405	527.13	560.34	2.0279	1.0322	1.1731	184.18	5.9331	1.8540e-05	0.026454	
452.62	2.2000	0.64815	1.5429	527.63	560.90	2.0291	1.0327	1.1734	184.34	5.9118	1.8558e-05	0.026490	
453.10	2.2000	0.64716	1.5452	528.14	561.46	2.0303	1.0333	1.1737	184.50	5.8906	1.8576e-05	0.026526	
453.57	2.2000	0.64617	1.5476	528.65	562.02	2.0316	1.0339	1.1740	184.66	5.8696	1.8594e-05	0.026561	
454.05	2.2000	0.64519	1.5499	529.15	562.57	2.0328	1.0345	1.1743	184.83	5.8487	1.8612e-05	0.026597	
454.52	2.2000	0.64421	1.5523	529.66	563.13	2.0340	1.0351	1.1746	184.99	5.8278	1.8630e-05	0.026633	




];

t=data(:,1);
s=data(:,7);
h=data(:,6);
cp=data(:,9);












